# timestamp,accel_x,accel_y,accel_z,gyro_x,gyro_y,gyro_z
1640791202.437369,-0.356508820,-0.293755320,10.139173510,-0.048172470,0.113613910,-0.007401410
1640791202.441619,0.279661300,-0.189285580,8.345564840,-0.040721900,0.142963230,-0.022791320
1640791202.443189,-0.114370070,0.070938300,10.543826100,0.007358190,0.067852440,-0.001434980
1640791202.445700,0.047012580,0.283350940,9.829543110,-0.043115010,0.173339220,-0.008003410
1640791202.447140,0.248782010,0.285220650,9.343158720,-0.035303830,-0.020681320,0.005409120
1640791202.450780,-0.366168770,0.168178800,10.317730900,0.024327640,0.041267280,0.009390710
1640791202.452119,0.013847850,0.018790600,8.622040750,0.043542680,0.126543660,-0.011712310
1640791202.455710,-0.341948060,0.066660920,10.130373000,0.079374020,0.035977360,0.018057230
1640791202.457579,-0.326909600,0.216021600,10.069346430,-0.001330670,0.145542670,0.014913080
1640791202.460810,0.232766240,0.153595750,9.081943510,-0.030216570,0.053159900,0.018487870
1640791202.462129,-0.234082390,0.268790250,10.512775420,0.026939810,0.071065140,0.007481870
1640791202.465880,0.078170200,0.291377900,9.408028600,0.051800910,0.113442550,-0.021073220
1640791202.468180,-0.014646960,0.376645590,9.577420230,0.093273820,-0.024580960,-0.006958840
1640791202.470739,-0.185546090,0.457213550,9.942476270,0.042882560,0.079166870,-0.001686810
1640791202.472100,0.142226170,0.362882020,9.311720850,-0.006811320,0.122427940,-0.001679360
1640791202.475940,-0.375373810,0.570039750,10.708152770,0.009040540,0.030745570,0.007574260
1640791202.477190,-0.311815980,0.610309120,10.082965850,-0.003124770,0.028175120,0.016087300
1640791202.480690,-0.049801400,0.501106560,9.145413400,0.040782990,-0.014813250,0.013764200
1640791202.482129,-0.125713900,0.760767820,9.655673980,0.031201540,0.074355310,0.005768240
1640791202.486080,0.257289470,0.847464920,9.528965950,-0.051015620,0.167313220,0.018899140
1640791202.487210,0.287246880,0.718811390,10.149305340,-0.068266700,0.067682560,0.040245060
1640791202.490970,0.257201670,0.618515430,10.363939290,-0.056912010,0.033812230,0.008693340
1640791202.492610,0.204472330,0.409990820,9.597601890,-0.011332330,0.039225810,0.003886220
1640791202.497310,-0.187322940,0.259373490,9.577814100,0.012364980,-0.010970240,0.012454390
1640791202.498040,-0.226262870,0.034624720,9.440591810,-0.041908030,0.076422100,0.000061090
1640791202.500800,-0.028419120,-0.047742710,9.103303910,-0.066775090,0.128811600,0.005488100
1640791202.502120,-0.047028950,0.220317180,10.214715000,-0.055614120,0.107821840,0.019395360
1640791202.506240,0.013352800,0.474557790,10.205476760,-0.062444810,0.105603030,0.016342100
1640791202.508400,0.245782970,0.599261580,9.377570150,-0.070519750,-0.004866720,0.021453200
1640791202.510710,0.175548810,0.412972180,9.773511890,-0.046260650,0.044904650,0.001612310
1640791202.512149,0.172709410,0.123810350,9.214665410,0.022099910,0.159072890,-0.007088480
1640791202.515710,0.076955330,0.130712720,9.824710850,0.050301850,0.053529450,0.010006130
1640791202.517360,-0.286643090,0.054582700,10.303120610,-0.024272510,0.090752560,0.019626320
1640791202.520939,-0.074690040,-0.101257740,9.138231280,-0.094592570,0.037169460,0.010544060
1640791202.522220,-0.261229340,-0.130079570,9.920224190,-0.028453770,0.019390880,0.006023050
1640791202.527170,-0.208371250,-0.024124690,9.300828930,0.059504820,0.164881360,-0.029850010
1640791202.527930,0.004379480,0.291330100,9.603607180,0.067530570,0.052560870,-0.028944020
1640791202.530690,-0.293540030,0.679976050,10.641178130,-0.012500580,0.073815870,-0.001329180
1640791202.532150,0.094402280,0.542687830,9.246892930,-0.088886900,0.047424430,0.008787210
1640791202.535830,-0.123860460,0.407701310,10.221171380,-0.011563300,-0.017194450,0.028926130
1640791202.537360,-0.465258540,0.387184650,10.022900580,0.065882510,0.099346040,-0.011076030
1640791202.541050,-0.150192990,0.219159010,9.320822720,0.072333220,-0.017341970,0.000008940
1640791202.542090,-0.316198680,0.354851160,10.251077650,0.034888090,0.018136200,0.031200050
1640791202.545670,0.194819050,0.298959050,9.036519050,-0.063383580,0.138762590,0.009158250
1640791202.547150,0.337717180,0.548200850,10.010472300,-0.070273880,0.051328540,0.021900240
1640791202.556069,-0.037180970,0.878015520,10.667239190,-0.049725170,0.100056850,0.001999740
1640791202.557590,0.228582230,0.561834990,9.392835620,-0.027747450,-0.033292170,-0.006026030
1640791202.558070,-0.159212840,0.405894400,10.078993800,0.054951020,-0.071269280,0.007241960
1640791202.558420,-0.282022980,0.193872570,9.110601430,0.030729170,0.110656030,-0.033988060
1640791202.560680,-0.196939960,0.116690610,9.504883770,-0.046448410,0.053428120,0.019505620
1640791202.562130,-0.604203160,0.222209270,10.789054870,-0.086778410,0.068119170,0.040408970
1640791202.566140,0.004091970,0.075959980,9.340726850,-0.090618430,0.019297000,0.003728270
1640791202.567319,0.205565480,0.326456190,9.668488500,0.015050170,-0.042352080,0.032265490
1640791202.571450,0.215124470,0.409830210,9.421779630,0.024111570,0.149686630,-0.009141860
1640791202.572729,0.576407190,0.268153550,9.428332330,-0.017435850,0.081346940,-0.010953840
1640791202.575739,0.059666250,0.263343190,10.836674690,-0.007198750,0.020551680,0.024877490
1640791202.577170,0.120142430,0.018463090,9.379163740,-0.017847120,0.006182490,-0.015909970
1640791202.580680,-0.104243050,-0.049829170,9.350594520,0.009277460,-0.052331380,0.015199180
1640791202.582360,-0.551047800,0.023606120,9.638567920,0.009948020,0.106494140,0.005346540
1640791202.585800,-0.289988880,-0.220194060,9.398251530,0.018493830,0.064140560,-0.019210580
1640791202.587180,-0.389311550,0.106662230,10.190674780,0.083421160,0.004619360,0.002373750
1640791202.590639,-0.009085020,0.422593530,9.345944400,0.031752880,0.068676480,-0.011312960
1640791202.592120,0.180071590,0.432000220,9.701015470,-0.027360020,0.042305890,0.000743570
1640791202.595719,-0.062715450,0.568671230,10.341344830,-0.017970800,0.054714080,0.005924700
1640791202.597119,0.137672360,0.319857120,9.600355150,0.050917270,-0.015178330,-0.018873810
1640791202.600770,0.004173340,0.186785680,9.677239420,0.133888440,-0.023163860,0.001925230
1640791202.602140,-0.086206350,0.358511660,9.426979060,0.068329270,0.088126960,0.002847610
1640791202.605710,-0.186961310,0.214278830,9.968347550,-0.031606860,0.034464900,0.002165140
1640791202.607149,-0.222859290,0.317878660,9.998099330,-0.044798850,0.001794100,0.022006040
1640791202.610649,0.034594090,0.498461720,9.408756260,0.014100970,0.025330480,-0.024467700
1640791202.612120,-0.131669670,0.616627870,10.085007670,0.058507920,0.044795870,-0.027172270
1640791202.616259,-0.136191160,0.987811270,9.886603360,0.018900630,0.042876600,-0.020009280
1640791202.617760,-0.114890900,0.738805650,9.924944880,-0.044110420,-0.034053630,-0.007267300
1640791202.620859,-0.145163040,0.341143220,9.777392390,-0.025238100,0.021441280,-0.002692640
1640791202.622079,-0.153819990,0.513677600,9.514200210,0.009691720,0.031521920,-0.013576450
1640791202.625730,-0.355519860,0.317703250,10.220469470,0.003579260,-0.018939380,-0.003948810
1640791202.627370,0.042225630,0.268469180,9.309040070,-0.042048100,0.001981850,0.009061400
1640791202.630859,0.286963370,0.273498030,9.354110720,-0.043812390,0.027869650,-0.010353330
1640791202.632540,0.168172820,0.135503190,10.106200220,-0.019732120,0.099374350,-0.018395490
1640791202.635779,0.257470400,0.407405940,9.750831600,-0.003071130,0.022287670,-0.008688870
1640791202.637200,-0.147478420,0.284303400,10.286503790,-0.018441680,-0.077556070,-0.019983950
1640791202.640659,-0.111096540,-0.018544590,9.205597880,-0.018674140,-0.024579470,-0.024904310
1640791202.642120,-0.184988890,0.034286340,9.097208020,0.032486020,0.004322830,-0.034323330
1640791202.645660,-0.525341270,-0.152444030,10.048179630,0.048787890,0.088599320,-0.043119490
1640791202.647280,-0.070680000,0.020345440,9.591989520,0.032611190,0.032787030,-0.027224420
1640791202.651090,-0.274461270,0.241711170,10.303646090,0.024974350,-0.056518610,-0.021886830
1640791202.652210,-0.025896770,0.131905960,9.364724160,0.001861160,0.001259150,-0.014676160
1640791202.655949,0.114039700,0.302949310,9.209759710,0.051119930,-0.007589160,-0.020737950
1640791202.657120,-0.264448850,0.276839940,10.162724490,0.080402190,0.041094420,-0.060389940
1640791202.660679,0.071880540,0.211229380,9.633797650,0.085377690,-0.018495320,-0.047421460
1640791202.662130,-0.240989160,0.386484440,10.144827840,0.096248110,-0.072811540,-0.031584500
1640791202.665840,-0.240766660,0.168405770,9.708917620,0.044216210,-0.002142790,-0.052054230
1640791202.667470,-0.143953000,0.329925780,9.665729520,0.040262940,-0.011587140,-0.030983990
1640791202.671389,-0.520193340,0.462516810,10.390336990,0.068689890,-0.021019580,-0.054599340
1640791202.672099,-0.038002950,0.372427550,9.530044560,0.081029540,-0.043027100,-0.056645290
1640791202.675680,0.009516700,0.774810490,9.703958510,0.103554140,-0.035348540,-0.043877950
1640791202.677170,-0.123248950,0.788866820,10.151067730,0.017987190,0.027017300,-0.071682040
1640791202.680800,0.062498070,0.729663550,10.041365620,-0.020062920,-0.060546390,-0.027972460
1640791202.682139,-0.229602400,0.673447670,10.201415060,0.040364270,-0.104358800,-0.040498380
1640791202.685809,-0.112074010,0.341632690,9.655836110,0.073418020,-0.061438980,-0.061023240
1640791202.687199,-0.023962420,0.611122730,9.555777550,0.073768200,-0.024974350,-0.028617680
1640791202.690699,-0.168987530,0.577543020,10.065584180,-0.022338330,-0.005689260,-0.042995810
1640791202.692150,0.330109330,0.428856730,9.725523950,-0.082680580,-0.012917820,-0.025196370
1640791202.696159,0.276055600,0.574814620,9.843299870,-0.010402500,-0.024332110,-0.033238530
1640791202.697130,0.089932780,0.462095710,10.094838140,0.028581920,-0.043822830,-0.074014070
1640791202.700739,0.120911420,0.496897100,9.737649920,0.039976840,-0.065302860,-0.043924160
1640791202.702180,-0.140870120,0.293384490,9.565176010,-0.007691980,-0.055322040,-0.057140000
1640791202.705659,-0.048924130,-0.073518030,9.799533840,-0.007557870,-0.006343420,-0.059133770
1640791202.707140,-0.102991780,0.204570840,9.751701350,0.032971790,0.028859080,-0.036372240
1640791202.710690,-0.146105680,0.274967310,9.874869350,0.003562870,-0.042003390,-0.047127900
1640791202.712410,-0.061930450,0.310027120,10.015550610,-0.025814780,-0.044265400,-0.024247180
1640791202.716110,0.061866500,0.300979640,9.165323260,0.011181830,-0.020930180,-0.039504480
1640791202.717409,0.018036400,0.002253940,9.867845540,0.073361400,-0.034803160,-0.069786590
1640791202.720719,-0.001849390,0.297616780,9.925912860,0.103728470,0.044848030,-0.060854850
1640791202.722119,0.069310500,0.318416680,9.606228830,0.016765300,-0.032556050,-0.065937640
1640791202.725690,-0.198954760,0.131559070,10.632297520,-0.018601120,-0.066292290,-0.048887730
1640791202.727239,-0.158738720,0.235487770,9.235782620,0.037805740,-0.016196070,-0.047416990
1640791202.730640,-0.270574660,0.060211780,9.556703570,0.119599710,-0.105516630,-0.074866420
1640791202.732370,-0.465672460,0.299649570,10.061757090,0.127701480,0.010462110,-0.061805560
1640791202.736400,-0.073844470,0.676305170,9.091598510,0.028786070,-0.011137130,-0.051189960
1640791202.737170,-0.201068330,0.560204390,10.773075100,-0.022646780,-0.078740720,-0.023226440
1640791202.740680,0.052013060,0.789961400,9.904814720,0.001876060,0.028713050,-0.034321860
1640791202.742169,0.111303720,0.759273290,9.690979000,0.055952380,-0.098860290,-0.053970520
1640791202.745689,-0.433200360,0.556876300,10.760001180,0.091642140,-0.088758770,-0.045284630
1640791202.747190,-0.058068840,0.527802410,8.803679470,0.050939630,-0.062711540,-0.062854600
1640791202.751870,-0.163077250,0.272392000,9.820579530,0.027102230,-0.118598350,-0.055539610
1640791202.752669,-0.226433400,0.420336010,10.105834960,-0.020851200,0.052581730,-0.041645770
1640791202.755720,0.335445020,0.628946480,9.306125640,-0.051909690,-0.027436020,-0.052097440
1640791202.757120,-0.036179640,0.510378300,11.031715390,0.003658240,-0.093364720,-0.041756040
1640791202.760769,0.138802380,0.652916790,9.615231510,0.033487380,-0.028587880,-0.055243080
1640791202.762130,0.134003090,0.596590940,9.350067140,0.028012690,-0.157783900,-0.063149620
1640791202.765869,-0.258675400,0.402733620,9.973396300,-0.028060370,-0.031398230,-0.028845670
1640791202.767190,0.267020550,0.331517160,8.831204410,-0.051672760,0.045551360,-0.033417340
1640791202.770650,-0.151414350,0.060577670,10.783970830,0.013607740,-0.053679940,-0.036083160
1640791202.772130,-0.134046820,0.201655360,10.175961490,0.026765460,-0.041185320,-0.036844600
1640791202.775869,0.195258780,0.284511060,9.061515810,-0.005541740,-0.116561370,-0.050452360
1640791202.777170,-0.163112980,-0.042756960,9.947991370,-0.015455490,-0.019450490,-0.057482720
1640791202.780640,0.160046920,0.170881170,9.227365490,0.024506450,0.040324030,-0.063194340
1640791202.782320,0.009138430,0.325383220,10.030636790,0.059899700,-0.060705850,-0.067754090
1640791202.786290,0.005150350,0.366704430,9.930309300,0.009773670,-0.032086670,-0.042650110
1640791202.787170,0.066511500,0.510881190,9.627741810,-0.024187570,-0.047774620,-0.047314180
1640791202.790820,-0.435970720,0.126763360,10.338866230,0.014750660,-0.068794200,-0.057867170
1640791202.792519,-0.241722000,0.121141200,9.486941340,0.102466370,-0.078165530,-0.064858800
1640791202.798070,-0.293894170,0.426730010,9.546629910,0.104983160,-0.061851740,-0.072430070
1640791202.799520,-0.139571920,0.427427710,9.738566400,-0.026340780,0.025279820,-0.050306320
1640791202.800700,0.058120230,0.620889370,10.113653180,-0.064750020,-0.022549930,-0.025689600
1640791202.802199,-0.121179280,0.554688160,10.412695880,-0.004021820,-0.066885350,-0.062842670
1640791202.805820,0.039078010,0.510109420,9.725423810,0.063766540,-0.115863990,-0.067521640
1640791202.807180,-0.216363700,0.766768990,9.764901160,0.080226370,-0.093662750,-0.066705060
1640791202.810670,-0.236171390,0.429583430,9.699884410,-0.010174510,-0.036811820,-0.065186600
1640791202.812130,-0.014570140,0.395962660,9.821692470,-0.031383340,-0.061881540,-0.032393640
1640791202.816110,-0.152464510,0.641093790,10.142423630,-0.023455920,-0.030963120,-0.070698570
1640791202.817210,0.139242430,0.706395030,9.814986230,-0.057281560,-0.044332440,-0.055629020
1640791202.821420,-0.061044750,0.905986610,10.158227920,-0.045713770,-0.100196910,-0.032912200
1640791202.822150,-0.064487680,0.590270640,9.745691300,-0.045759980,-0.088936100,-0.071722270
1640791202.825690,0.266954900,0.419403550,9.302977560,-0.016205010,-0.055670740,-0.049030780
1640791202.827390,0.009205010,0.466539800,9.944537160,-0.007374580,0.010712450,-0.040741260
1640791202.830670,0.149450960,0.104514780,10.189884190,-0.077432390,-0.009721520,-0.041662160
1640791202.833170,0.122583830,0.186533610,10.202810290,-0.070998080,-0.094562770,-0.019204620
1640791202.835680,-0.038340940,0.119791140,9.636805530,-0.048628450,-0.094994920,-0.049693890
1640791202.837340,0.156009580,0.004148650,9.277118680,-0.011174380,-0.042702260,-0.053778290
1640791202.840839,-0.017840410,0.338012810,9.525716780,0.004647670,0.027745960,-0.058327620
1640791202.842120,0.055530410,0.253151890,10.005126950,-0.036662810,-0.010769070,-0.072714690
1640791202.845680,0.078816410,0.418439920,10.249686240,-0.046457350,-0.034677990,-0.039163230
1640791202.847159,-0.002980660,0.609942140,9.562759400,-0.064481800,-0.069624190,-0.044219200
1640791202.850829,-0.095537230,0.256973270,10.005782130,-0.045512630,-0.068378450,-0.050471730
1640791202.852180,-0.126186180,0.219924240,9.503488540,0.020287930,0.024788090,-0.051228700
1640791202.855729,-0.078734650,0.131104710,9.630031590,0.045257820,-0.052471470,-0.062488030
1640791202.857240,-0.046931910,0.086043100,10.182266240,0.013846160,-0.012418630,-0.025115910
1640791202.860750,0.232134480,0.328371080,9.219182970,-0.066909190,0.029920040,-0.033339860
1640791202.862180,-0.059717750,0.244325890,10.558113100,-0.083285580,-0.072592480,-0.043162700
1640791202.866089,-0.123768690,0.339628670,10.070278170,0.002238150,-0.030097360,-0.042587510
1640791202.867319,0.062753860,0.517472740,9.108723640,0.056396420,-0.088353460,-0.079350170
1640791202.870770,-0.397723760,0.625653090,10.517309190,0.026011460,-0.039361410,-0.063343350
1640791202.872290,-0.176849690,0.898148950,9.536453250,-0.086335820,0.042426580,-0.044427800
1640791202.875660,-0.194677470,0.730713130,10.190454480,-0.121878060,-0.113192190,-0.033412870
1640791202.877120,-0.258286210,0.702362720,10.387240410,-0.060872730,-0.033943360,-0.017358360
1640791202.880650,0.227328720,0.790938440,9.072611810,-0.024679310,-0.015929340,-0.045764440
1640791202.882400,-0.125205170,0.629084470,10.475804330,-0.032173100,-0.087840860,-0.033713880
1640791202.885680,0.158624720,0.471691790,9.697072030,-0.100398060,-0.003224610,-0.001512470
1640791202.887450,0.456990210,0.184953240,9.429906850,-0.113011910,-0.042290990,-0.026054680
1640791202.890689,-0.068613700,0.148408520,10.564837460,-0.088763240,-0.037997960,-0.029414900
1640791202.892190,0.132691900,0.419281360,9.539340020,-0.097133200,-0.041098890,-0.025115910
1640791202.895690,-0.118501920,0.183278290,9.910819050,-0.103487100,-0.092732930,-0.036238140
1640791202.897240,-0.146108780,0.148425240,9.923362730,-0.078561900,-0.016687810,-0.038972500
1640791202.900770,0.023391170,0.371433940,9.559157370,-0.048695510,-0.006648900,-0.053007910
1640791202.902140,-0.046746100,0.415271100,9.840022090,-0.082920500,-0.018346310,-0.042453410
1640791202.905769,0.206315120,0.592443050,9.874456410,-0.137670350,-0.016598410,-0.007261340
1640791202.907150,0.066406000,0.422145070,10.055843350,-0.134018030,-0.007800760,-0.015872710
1640791202.910630,0.106726150,0.036739910,9.814561840,-0.059391560,-0.082793850,-0.009495020
1640791202.912130,0.013517410,0.073019560,9.834577560,0.016137960,-0.056801750,-0.014980140
1640791202.916000,-0.129214560,-0.001288930,9.594963070,-0.038488210,0.024008750,-0.043532260
1640791202.917199,0.032206050,0.110096240,9.908599850,-0.123183430,-0.043883920,-0.002177060
1640791202.920689,-0.169538600,0.379968850,10.318989750,-0.127457100,-0.009360910,-0.002323090
1640791202.922279,0.198065490,0.339305310,9.418847080,-0.099846710,-0.036971270,-0.029294190
1640791202.925700,0.039005520,0.728701170,10.245171550,-0.033396490,-0.044070200,-0.017446280
1640791202.927219,-0.183156680,0.844504060,10.018998150,-0.061213980,0.022952260,-0.045523050
1640791202.930680,0.037853040,0.728043620,9.684383390,-0.093463070,-0.102800150,-0.006133320
1640791202.932410,-0.247690170,0.877393780,10.285956380,-0.112240030,-0.066110500,0.014293200
1640791202.935789,0.115750720,0.576082710,9.174389840,-0.163078310,0.036218760,-0.003635880
1640791202.938830,0.132803380,0.587795500,10.230522160,-0.141195950,-0.017119950,0.025270880
1640791202.940640,-0.108141560,0.498627780,10.623229980,-0.121355060,0.021746750,0.013098120
1640791202.942129,0.371383040,-0.009248870,9.599867820,-0.096784540,-0.089095530,0.000001490
1640791202.945690,0.112895280,0.219405950,9.990880970,-0.074589260,-0.068783770,0.004842880
1640791202.947180,0.157247620,0.295452740,9.195695880,-0.179569420,0.038526960,-0.005055960
1640791202.950820,0.317224120,0.185520340,9.736067770,-0.199349240,0.003886220,0.028491020
1640791202.952420,0.001120290,0.410734270,10.466267590,-0.152216870,0.039184090,0.011356180
1640791202.955819,0.144693630,0.358680490,9.973009110,-0.095568580,-0.036923590,-0.005880000
1640791202.957219,-0.050447020,0.417586570,10.022832870,-0.066858530,-0.069125000,0.021663310
1640791202.960850,0.025402740,0.365917800,9.248053550,-0.140011330,0.037479400,0.008112190
1640791202.963610,0.061063360,0.094248370,9.826094630,-0.156080720,0.037613510,0.018666680
1640791202.967769,0.089907150,0.285125550,9.981402400,-0.118684790,0.067651280,0.026103860
1640791202.968690,0.285852020,0.294267240,9.693224910,-0.130057350,0.002315640,0.011548400
1640791202.970889,0.123914160,0.188801690,10.135857580,-0.126959380,-0.007267300,0.030678520
1640791202.972190,0.153911900,0.039651350,9.672085760,-0.121472780,0.028860570,0.012673440
1640791202.975730,-0.129678680,-0.240175290,10.024003030,-0.051325560,-0.015136600,0.001126530
1640791202.977160,-0.167616800,-0.014140860,9.766699790,-0.027649110,0.021815300,0.011684000
1640791202.980660,-0.012111660,0.191910240,9.629940990,-0.102962550,0.036691130,0.014799830
1640791202.982329,-0.171223190,0.286440700,10.250345230,-0.153437260,0.037595630,0.034272670
1640791202.985800,0.099899080,0.494811360,9.852233890,-0.124332320,0.019089880,0.015227500
1640791202.987219,-0.065589230,0.494630900,10.116544720,-0.041881200,0.005202000,0.000119210
1640791202.990640,-0.119484310,0.689351020,9.825730320,-0.021702050,0.003664200,0.006778540
1640791202.992159,-0.003891670,0.793257710,9.849363330,-0.104688120,-0.002369280,0.027900930
1640791202.995689,-0.029735390,0.524003620,9.817997930,-0.161804230,0.054229790,0.043256580
1640791202.997180,0.222453340,0.422563400,9.954783440,-0.129893420,0.049249830,0.045630340
1640791203.000810,-0.018704270,0.382526900,10.608548160,-0.077509880,0.058282920,0.032800440
1640791203.002139,0.056478690,0.285667540,9.745756150,-0.083473320,-0.021727380,0.031080840
1640791203.005730,-0.011474430,0.188219770,10.006647110,-0.095815950,-0.044551490,0.036796920
1640791203.007170,0.005058920,0.068947170,9.346289630,-0.111612690,0.080822410,0.019635260
1640791203.010779,0.225643950,0.156556340,9.542393680,-0.113809110,0.049996380,0.028428440
1640791203.012159,-0.010782630,0.446374300,10.752426150,-0.118611760,0.105677550,0.029623510
1640791203.015879,0.208023190,0.385067820,9.791509630,-0.138400510,0.039717570,0.022301080
1640791203.017439,0.103624120,0.403001160,10.393269540,-0.079512600,-0.077606740,0.046834350
1640791203.020720,-0.022555000,0.360220160,9.550954820,-0.067467990,0.086456540,0.021384660
1640791203.022359,0.334173920,0.185309960,8.887733460,-0.102828450,0.046837330,0.034369530
1640791203.025740,0.025407900,0.244629560,10.718189240,-0.094614930,0.106531390,0.054816900
1640791203.027279,0.310349110,0.075113740,9.610256200,-0.126430410,0.156080720,0.033526130
1640791203.030700,0.204060730,0.064057470,10.270498280,-0.081026560,-0.040888780,0.057372450
1640791203.032620,-0.277528140,-0.041587800,10.456296920,-0.053463880,0.057041650,0.018969180
1640791203.037609,0.069111700,-0.327646580,8.754733090,-0.048787900,0.043514370,-0.005865100
1640791203.038360,-0.370352240,-0.122438230,10.270892140,0.010301170,0.011876230,0.012220450
1640791203.040640,-0.148163390,0.166904420,9.709945680,-0.053080920,0.179442760,0.001603360
1640791203.042090,0.273997160,0.417155390,9.685299870,-0.099584470,0.057125090,0.029386580
1640791203.045689,-0.132342170,0.639159560,11.086915020,-0.086124240,0.077925620,0.048522650
1640791203.047170,0.255397320,0.524902520,9.659127240,-0.040052830,0.054535280,0.015851860
1640791203.051180,0.102949190,0.492787690,9.775397300,0.046999760,-0.041718780,0.038549320
1640791203.052389,-0.091489880,0.581689060,9.932720180,-0.003813210,0.109858820,0.029617550
1640791203.055650,0.111032810,0.488527120,9.620599750,-0.114336620,0.119146710,0.029158600
1640791203.057190,-0.109684390,0.410874340,10.523920060,-0.122636540,0.046183170,0.057016310
1640791203.060710,-0.002620830,0.224565270,10.302477840,-0.074103470,0.078268360,0.015950200
1640791203.062199,-0.043077830,0.273136940,9.935822490,0.007122760,0.047959380,0.005289910
1640791203.065690,-0.278882680,0.449786810,10.018229480,-0.015099350,0.006391110,0.027030710
1640791203.067580,-0.057829430,0.317711950,9.802118300,-0.115393110,0.073884430,0.026826560
1640791203.071040,0.222987800,0.300041790,9.510760310,-0.104600190,0.134697570,0.043268510
1640791203.072140,0.153284310,0.468089160,10.582973480,-0.067904600,0.108353790,0.034591560
1640791203.075680,0.066217840,0.578105030,10.532043460,-0.051769620,0.078633440,0.048892200
1640791203.077190,0.204960230,0.501374660,9.484870910,-0.070090600,-0.018776960,0.051867970
1640791203.080720,0.030978560,0.216001450,10.028857230,-0.072161850,0.039853150,0.032733380
1640791203.082140,0.145934490,0.080719940,9.277448650,-0.041675570,0.167170180,0.036610660
1640791203.085709,0.283653470,0.086812810,9.945149420,-0.036416950,0.110794600,0.036139790
1640791203.087740,0.024551650,0.171702250,10.824012760,-0.066700580,0.135913510,0.029279300
1640791203.090639,0.246379120,0.266219710,9.578937530,-0.107274950,0.059859460,0.036157670
1640791203.093910,-0.108884230,0.014354580,10.300906180,-0.054255130,0.001151860,0.037409370
1640791203.095759,-0.389757310,-0.143427420,9.648613930,0.020115070,0.124017890,0.008989870
1640791203.097280,-0.187325210,-0.074528400,9.420586590,0.052744150,0.058723990,-0.002533200
1640791203.100880,-0.494488150,0.163877380,10.632093430,-0.000821050,0.119133290,0.027702750
1640791203.102170,0.079727600,0.365014850,9.423639300,-0.097398450,0.130184010,0.049686430
1640791203.105929,0.232563670,0.436716710,10.401203160,-0.078237060,0.063773990,0.048686570
1640791203.107180,0.094577760,0.486505510,10.433976170,-0.010164080,0.146400930,0.035350030
1640791203.110669,0.424849900,0.378081740,9.568679810,0.066772100,0.031624740,0.024646520
1640791203.112460,-0.049904080,0.304897010,10.435388570,0.075349220,0.040937960,0.020927190
1640791203.116109,0.070450070,0.303665460,9.343957900,-0.041778390,0.131455080,0.021578370
1640791203.117689,-0.057019700,0.324760970,10.247182850,-0.083789240,0.053514540,0.041587650
1640791203.120800,-0.393413480,0.321045640,10.672621730,-0.063961750,0.118987260,0.035561620
1640791203.122120,0.002981860,0.397558660,9.577425960,0.009284910,0.049440560,0.017271940
1640791203.125700,-0.282242540,0.656829480,10.639617920,0.058567520,0.044491890,0.011298060
1640791203.127380,-0.045210850,0.819762710,9.676563260,-0.051276390,0.134950880,0.027878580
1640791203.130659,0.213471550,0.774542450,9.954497340,-0.115148750,0.047081710,0.061944130
1640791203.133020,-0.005141520,0.608077110,10.624506000,-0.093051780,0.123447170,0.048920510
1640791203.135730,0.307237630,0.431037870,9.577762600,-0.039394200,0.092723970,0.035451350
1640791203.137719,-0.076736160,0.387043240,10.646426200,0.023600460,0.010924040,0.052955750
1640791203.140689,-0.106727850,0.154549870,9.900884630,-0.052735220,0.100578380,0.026287140
1640791203.142170,0.225470240,0.028128650,9.244850160,-0.084194550,0.038664040,0.045643750
1640791203.145660,-0.047629250,0.186210780,10.329030040,-0.068737570,0.135272740,0.040520730
1640791203.147189,0.356534960,0.295994610,9.547981260,-0.095179670,0.202923980,0.034375490
1640791203.150720,0.061755280,0.444065540,10.657223700,-0.045788290,0.037333370,0.057339670
1640791203.152150,-0.157214190,0.235232740,10.501241680,-0.028315190,0.057102740,0.033852460
1640791203.155730,0.027538810,-0.072141140,9.111406330,0.003924970,0.030103320,0.023497640
1640791203.157220,-0.393882810,-0.060904670,10.011601450,0.027710200,0.088283430,0.033567850
1640791203.162619,-0.211899970,-0.174605920,10.048229220,-0.030873720,0.187011080,0.023955110
1640791203.163370,-0.044908030,-0.001952110,10.162448880,-0.015099350,0.059187410,0.045920900
1640791203.165670,-0.023138550,0.236051990,10.234208110,-0.008505580,0.052377590,0.048734250
1640791203.168740,0.383762120,0.152745260,9.589215280,-0.004647670,0.125743450,0.036540630
1640791203.170679,0.121183890,0.299350440,10.102627750,0.062194470,0.092098120,0.036261980
1640791203.173260,0.010123860,0.401429650,10.378217700,0.061061980,0.061425570,0.017169120
1640791203.175890,0.063996080,0.409661170,9.733475690,0.013221800,0.056122250,0.045882170
1640791203.177260,-0.144561100,0.413786890,9.942202570,-0.005522370,0.069499020,0.048892200
1640791203.180750,-0.414385080,0.294143320,10.771675110,0.001344080,0.107216840,0.017254050
1640791203.182350,-0.498740200,0.360795800,10.055051800,0.057907410,0.035388770,0.030006470
1640791203.185730,-0.408280400,0.393257110,9.916726110,0.065964460,-0.037704410,0.018754600
1640791203.187889,-0.094425880,0.603815140,9.715122220,0.003793840,0.122717020,0.023756920
1640791203.190670,0.293482180,0.902983070,9.531780240,-0.063668210,0.147673520,0.056773430
1640791203.192580,0.276234810,0.733296870,11.233401300,-0.068324790,0.078752630,0.053773810
1640791203.195670,0.389096080,0.628521440,10.371799470,0.000627340,0.069907310,0.032621630
1640791203.197180,0.284373400,0.447373180,9.861003880,0.060211110,-0.056630370,0.035834300
1640791203.200749,-0.241266150,0.192963570,10.445656780,0.026918950,0.024177130,0.039373340
1640791203.202160,-0.024726840,0.050223890,8.881771090,-0.054298340,0.099171700,0.045379990
1640791203.205680,-0.032112770,-0.046590790,10.099496840,-0.057420150,0.045505170,0.045041750
1640791203.207209,-0.090873030,0.272166010,10.462017060,-0.036750730,0.190402580,0.030948220
1640791203.210660,0.350090770,0.648701910,9.537763600,-0.040908150,0.074829150,0.028748810
1640791203.212200,-0.072351780,0.538942400,11.161704060,-0.021897260,-0.009322170,0.034233940
1640791203.216570,0.053468350,0.371432570,9.473922730,0.001862650,0.076478730,0.015415250
1640791203.217500,0.171928790,0.145775150,9.079359050,0.040611630,0.003550950,0.022788350
1640791203.221200,-0.427060840,0.009763660,10.674653050,0.026634340,0.140498610,0.032638020
1640791203.222139,0.008812450,-0.069564650,9.443559650,-0.034306940,0.127664190,0.029242040
1640791203.225710,-0.171020790,-0.231063410,10.688361170,0.002285840,-0.043757260,0.038096310
1640791203.227200,-0.223132060,-0.252016870,10.085783000,0.046843290,0.090236950,0.015279650
1640791203.230670,0.342468560,-0.050921020,8.741914750,0.074157130,0.057944660,-0.006701050
1640791203.232410,-0.208331360,0.202154040,10.907314300,0.073322650,0.081875930,0.004330280
1640791203.235730,0.196983380,0.519329730,9.623106960,0.000506640,0.139628370,-0.000427660
1640791203.237270,0.281706600,0.577413200,9.936770440,0.016894940,-0.020457800,0.021728880
1640791203.241220,-0.405551220,0.521611930,10.902025220,0.064128650,0.069198030,0.010155140
1640791203.242169,-0.176416470,0.437710520,9.329874040,0.078895700,0.046135500,-0.001272560
1640791203.245689,-0.720192490,0.240392890,10.618013380,0.117185730,-0.058299310,0.001131000
1640791203.247190,-0.575260520,0.263402220,9.879319190,0.062021620,0.072385390,0.002324580
1640791203.250769,0.165520360,0.450393410,9.092805860,0.023387370,0.058007240,0.010244550
1640791203.252169,-0.132835270,0.710217950,10.994966510,-0.022865830,0.115694120,0.004947190
1640791203.256179,0.378826200,0.941663980,10.096587180,-0.053495170,0.095650550,0.008989870
1640791203.257200,0.359687830,0.712462660,10.305118560,0.034071500,-0.078870340,0.012406710
1640791203.260759,-0.082845610,0.469917890,10.382945060,0.095933680,0.002430380,-0.018328430
1640791203.262140,0.150129300,0.515470210,9.073503490,0.062011180,0.040891760,-0.008623300
1640791203.266029,-0.319203880,0.353678080,10.313894270,-0.037688010,0.032168620,0.017759200
1640791203.267210,-0.117547800,0.234220010,10.128591540,-0.103017670,0.107984240,0.004971030
1640791203.270759,0.090723820,0.379112090,10.055578230,-0.024117530,0.032088160,-0.004602970
1640791203.272369,-0.189693810,0.432572420,10.552125930,0.039306280,-0.000397860,-0.017106530
1640791203.275669,0.261821600,0.478136300,9.131566050,0.011284650,0.033275790,-0.015857810
1640791203.277220,0.158197060,0.413206960,9.664751050,-0.020408630,0.054028640,-0.005321200
1640791203.280750,0.063260930,0.152666940,10.260149960,-0.044374170,0.104111440,-0.008416180
1640791203.282379,0.173893730,0.185688230,10.120257380,0.014065210,0.019542870,0.019022820
1640791203.286239,-0.255555240,0.125377160,10.442729000,0.011965630,-0.017981230,0.003603100
1640791203.287320,-0.186500830,-0.061413000,9.754083630,-0.016105180,0.011686980,-0.006437300
1640791203.290710,-0.356860130,-0.105445520,9.785339360,0.051517790,0.018727780,-0.015139580
1640791203.292160,-0.312508310,-0.050736690,9.802056310,0.072279570,0.048910090,-0.041018420
1640791203.295699,0.088851190,0.293697060,9.850227360,0.036323070,0.068709250,-0.003038350
1640791203.297160,0.054558990,0.588256480,10.410698890,-0.020398210,0.067618490,-0.005106630
1640791203.300720,0.177035360,0.361158550,10.487677570,-0.028602780,-0.001135470,-0.015766920
1640791203.302240,0.038104550,0.429784690,10.087954520,0.080510980,-0.041054190,-0.015714770
1640791203.305830,-0.224602390,0.401484310,9.800148010,0.115737320,-0.016921750,-0.051186980
1640791203.307250,-0.285619740,0.365669460,9.893800740,0.055582820,0.002612170,-0.020872060
1640791203.310690,-0.436396720,0.466976400,10.091445920,-0.008426610,0.027264650,-0.009226800
1640791203.312209,-0.200716110,0.271535070,10.282470700,-0.035433480,-0.003096460,-0.025649370
1640791203.316069,-0.087905130,0.503784890,10.359385490,0.018779940,0.014047330,-0.014182930
1640791203.317210,-0.081092450,0.730131270,10.200916290,0.039915740,-0.002035500,-0.031904880
1640791203.321139,0.120893910,0.569502830,10.210852620,0.008352100,-0.046031180,-0.018872320
1640791203.322350,0.261634590,0.538656650,9.688396450,0.000828500,-0.005796550,-0.011302530
1640791203.325680,0.311863990,0.386022660,9.945873260,0.001075860,0.029125810,-0.033374130
1640791203.327309,0.042048670,0.346182550,10.552364350,-0.005057460,0.012634700,-0.010205810
1640791203.330680,-0.119133210,0.400138050,10.017431260,-0.017452240,-0.060436120,-0.012893970
1640791203.332610,-0.095822980,0.084182860,10.142010690,-0.019383430,-0.080032650,-0.024734440
1640791203.335780,-0.071566940,0.104178660,9.585263250,0.034476820,0.040408970,-0.011041760
1640791203.338549,-0.019256760,0.390331150,9.676541330,0.021177530,0.033125290,-0.032421950
1640791203.340639,-0.013009610,0.412330690,10.661623000,-0.044585760,0.041155510,-0.003533070
1640791203.342150,0.137066220,0.343329130,9.879520420,-0.049619380,0.005288420,0.005599860
1640791203.345630,0.094680000,0.157846440,10.271177290,0.020480160,-0.106397290,-0.025677680
1640791203.347220,-0.171790760,-0.033528320,9.936875340,0.083178280,0.003375110,-0.024867060
1640791203.350720,-0.021469720,-0.070394830,9.086489680,0.069537770,-0.002610680,-0.034473840
1640791203.352380,-0.344722330,-0.177434360,10.796654700,0.035512450,-0.023500620,-0.037041310
1640791203.355860,-0.065773370,-0.024588500,9.692310330,0.006704030,0.041605540,-0.018987060
1640791203.357190,0.208193730,0.234586750,9.717059140,0.021716950,-0.078500810,-0.018590690
1640791203.360690,-0.037384720,0.393347020,10.618366240,0.044274330,0.036981700,-0.032842160
1640791203.362180,0.307006810,0.673043190,9.304915430,0.045499210,0.027966500,-0.041319430
1640791203.366040,-0.112635250,0.639726100,10.714269640,0.079742090,-0.116853430,-0.023107240
1640791203.367610,-0.188623950,0.470491500,10.047168730,0.056736170,0.007726250,-0.021769110
1640791203.372609,0.055237070,0.465304260,9.257910730,0.036203860,-0.054267060,-0.022982060
1640791203.373070,-0.726198430,0.226538380,11.291901590,0.034642220,-0.036118930,-0.020468240
1640791203.375650,-0.279758450,0.178775390,9.601666450,0.013181570,-0.011567770,-0.030261280
1640791203.377210,-0.069621290,0.279087840,9.895554540,0.061722100,-0.135983530,-0.033538050
1640791203.380699,-0.134343210,0.439911840,10.475208280,0.040304660,0.040987130,-0.037823620
1640791203.382409,0.693977180,0.799565550,9.019229890,-0.020812450,0.043460730,-0.022493300
1640791203.385710,0.231209050,0.738928260,11.141501430,-0.028730930,-0.064711280,-0.019215050
1640791203.387450,0.250025660,0.639721100,10.273298260,0.001358990,-0.002413990,-0.033742190
1640791203.390630,0.237608860,0.644798100,9.469727520,0.046738990,-0.138428780,-0.035789600
1640791203.392180,-0.636101310,0.420436110,10.711706160,0.020428000,-0.084154320,-0.012357530
1640791203.395710,-0.117508740,0.200305000,9.023490910,-0.040189930,0.015641750,-0.005882980
1640791203.397189,-0.204663810,0.038931560,10.072572710,-0.000138580,-0.025194890,-0.020733480
1640791203.401369,-0.227586220,0.130172770,10.709120750,0.003202260,0.058785080,-0.010673700
1640791203.402700,0.421766850,0.337888720,9.569997790,-0.008516010,-0.022456050,-0.002819300
1640791203.406540,0.073801830,0.164523810,10.505685810,-0.010685620,-0.095149880,-0.019910930
1640791203.407559,0.314331650,0.138939680,9.502871510,-0.001452860,-0.020901860,-0.037963690
1640791203.410610,0.311831770,0.127999770,9.311715130,0.063058730,-0.015859310,-0.042165810
1640791203.412190,-0.099909700,-0.003539620,10.486366270,0.062099100,0.017996130,-0.047369310
1640791203.416100,0.032991200,0.174790930,10.242168430,0.041617450,-0.021746750,-0.019390880
1640791203.419800,-0.266356800,0.102932560,10.269744870,0.026023390,-0.091345610,-0.016713140
1640791203.420590,-0.128216490,0.073192320,9.769580840,0.018770990,-0.041382020,-0.023773310
1640791203.422279,-0.031739860,0.452659550,9.749296190,0.063061710,0.040636970,-0.015264750
1640791203.425740,-0.103888120,0.460913600,10.369093890,0.047878920,0.012806060,-0.040592250
1640791203.427800,0.181532700,0.622756300,10.339071270,0.042298450,-0.062187020,-0.009749830
1640791203.430780,0.147402790,0.641218780,9.959777830,0.035230820,-0.034615400,-0.024259090
1640791203.432309,-0.000195690,0.293431130,10.129637720,0.015202170,-0.042341650,-0.038434570
1640791203.435779,-0.280918990,0.467982980,10.566573140,0.054794550,-0.055238610,-0.011219080
1640791203.437240,-0.354633960,0.265182500,9.956617360,0.042898950,-0.074221190,-0.032919640
1640791203.440590,0.062019100,0.175358520,9.663065910,0.038240840,-0.071035330,-0.011283160
1640791203.442160,0.130173030,0.623175380,9.969579700,0.022353230,0.068348650,-0.018316510
1640791203.445639,0.276034950,0.617688780,10.182515140,-0.052094450,0.052100410,-0.021250540
1640791203.447389,0.234187160,0.696752970,10.796738620,-0.023996840,-0.091058020,0.005938110
1640791203.450960,0.101183820,0.730849270,10.014634130,0.010170040,-0.097924470,-0.034253300
1640791203.452289,0.250229480,0.333466920,9.299967770,0.032164150,-0.085167580,-0.019167360
1640791203.455720,-0.099412470,0.390226100,9.981010440,0.036740310,0.030265750,0.006483500
1640791203.457219,-0.065322300,0.068468300,10.067878720,-0.023078920,0.072407730,-0.017416480
1640791203.460670,0.047973260,-0.045254570,10.510775570,-0.017263000,-0.063720350,0.017787520
1640791203.462170,-0.084102430,0.222466140,10.067004200,-0.001968440,-0.047868490,-0.001770260
1640791203.465750,0.177699860,0.104284170,9.221513750,-0.024361910,-0.036449730,-0.043128430
1640791203.467500,0.010109500,0.234625460,9.941074370,0.015708800,0.010339920,-0.028410550
1640791203.470660,-0.013194420,0.330480460,9.969341280,0.026252870,0.051271920,-0.066906210
1640791203.472450,0.103968690,0.226550430,10.278304100,0.029462580,-0.046178710,-0.042451930
1640791203.475690,-0.080128720,0.427228960,10.278229710,0.021903220,-0.018608570,-0.008878110
1640791203.477350,-0.033858750,0.227106290,9.885435100,-0.026662650,-0.019708280,-0.023809080
1640791203.480990,-0.176314670,0.049902250,10.238495830,0.029730800,-0.027813020,-0.006282330
1640791203.482180,-0.085231000,0.204238040,9.667900090,0.066991160,-0.007510190,-0.033295160
1640791203.485770,0.132976680,0.232312920,9.876387600,0.055137280,-0.014407930,-0.040107970
1640791203.487239,0.205538880,0.566353020,10.132386210,-0.002607700,0.055196870,-0.015661120
1640791203.490610,0.280003040,0.709286450,10.206477170,-0.066116450,0.008350610,-0.038732590
1640791203.492220,0.031372710,0.522294460,10.756613730,-0.023056560,-0.065773710,-0.037774440
1640791203.496130,-0.062066420,0.587302740,9.815345760,0.062017150,-0.037600110,-0.048010060
1640791203.497510,-0.248340550,0.514876720,9.845264430,0.060155990,-0.058498990,-0.051921610
1640791203.501250,-0.363735770,0.486622100,10.056357380,-0.006422400,0.003564360,-0.008332730
1640791203.502400,0.125398930,0.418326170,9.405441280,-0.088001800,0.032293810,-0.012247270
1640791203.505970,0.052014150,0.309076190,10.598282810,-0.062988700,0.020074840,-0.017210840
1640791203.507220,0.208210810,0.465972210,10.402742390,-0.010180470,0.028531250,-0.018116830
1640791203.510609,0.367887350,0.331373630,9.867335320,0.006248060,-0.071577740,-0.028653450
1640791203.512780,0.065600270,0.051044210,10.132869720,0.017349430,-0.048170990,-0.038921840
1640791203.515699,0.219443770,0.094215860,9.219941140,-0.002956390,0.046193600,-0.045844910
1640791203.517249,-0.030343790,0.035130110,9.968580250,-0.022643800,0.005093220,-0.036916140
1640791203.520680,-0.136806850,0.169543970,10.280531880,-0.032442810,0.023584070,-0.023603440
1640791203.523890,0.044276800,0.235874650,9.926998140,-0.032295290,-0.015853350,-0.036260490
1640791203.525760,-0.216759610,0.089029540,10.174592970,0.040875380,-0.033813710,-0.041277710
1640791203.527590,-0.045903430,0.316714110,9.585748670,0.060886140,0.013548130,-0.051656360
1640791203.530619,-0.064106140,0.333800290,9.897014620,0.017769630,0.038792200,-0.051432850
1640791203.532160,-0.050823320,0.354652400,10.064454080,-0.022649770,0.006066260,-0.027744470
1640791203.535950,0.145806460,0.352588390,10.137591360,-0.013999640,-0.022761520,-0.016999250
1640791203.537240,0.026947820,0.021829190,9.961330410,0.033968680,0.018569820,-0.035728510
1640791203.540640,0.025048410,0.028852650,10.052036290,0.081630060,-0.012569130,-0.048683590
1640791203.542189,-0.278954710,0.106508350,10.608804700,0.081448260,-0.013604760,-0.053641210
1640791203.545689,0.032996130,0.233851610,9.306186680,0.015468900,-0.030933330,-0.029699510
1640791203.547220,0.181952850,0.469107930,9.981528280,-0.025314090,-0.006778540,-0.029234590
1640791203.550680,0.123964180,0.708530070,10.161049840,-0.032357870,0.128556800,-0.048330430
1640791203.552480,0.208431770,0.759555940,10.188703540,0.011862820,-0.016541780,-0.030268730
1640791203.556840,-0.194750860,0.668853160,11.123444560,0.072397300,-0.071124740,-0.034332280
1640791203.557350,-0.079159610,0.381825390,9.298655510,0.054824350,-0.040441750,-0.034442540
1640791203.561349,-0.010087010,0.304618750,9.394479750,0.017648940,-0.079326350,0.000844900
1640791203.562729,-0.197162320,0.265137080,10.064789770,-0.063094480,0.125065430,-0.012442470
1640791203.565650,0.446121960,0.074058940,9.263676640,-0.062091660,0.074407460,-0.001497570
1640791203.567279,0.147582190,0.097976000,11.241835590,0.053575650,-0.044508280,-0.016658010
1640791203.570760,0.158660350,0.141056280,9.961142540,0.074394060,0.024895380,-0.037425770
1640791203.573370,0.382704680,0.103041600,9.061633110,0.028277940,-0.094527010,-0.025199360
1640791203.576110,-0.260766000,0.022115680,10.608489990,-0.000219050,0.044059760,-0.024098160
1640791203.577210,0.126771180,0.038373460,9.090445520,-0.002811850,0.111940510,-0.032006200
1640791203.580619,-0.096104260,0.238423910,10.389410970,0.069315740,-0.069940090,-0.003945830
1640791203.582229,-0.408911470,0.271390890,10.509328840,0.058771670,0.049869720,-0.018839540
1640791203.586480,0.162073850,0.354105350,8.833035470,0.032317640,-0.024910270,-0.018920010
1640791203.587280,-0.325018550,0.231683020,10.546597480,0.059540580,-0.052434220,-0.010411440
1640791203.590819,0.103556970,0.341560750,9.364828110,0.045107310,0.115856530,-0.027585030
1640791203.592280,0.380935250,0.530602510,9.795306210,0.056172910,0.002072750,-0.009705130
1640791203.596050,-0.107215700,0.424190100,11.242415430,0.010389090,0.040090080,-0.015547870
1640791203.597220,0.203203080,0.378831620,9.723061560,0.009687240,-0.017251080,-0.022223590
1640791203.600659,-0.251878470,0.138178870,10.119124410,0.089426360,-0.119896250,-0.018595160
1640791203.602360,-0.423495110,0.013128440,9.767825130,0.090904540,0.007937850,-0.032903260
1640791203.606410,-0.144052180,0.425293450,9.375784870,0.056752570,0.018741190,-0.029450650
1640791203.607280,-0.273110390,0.523794830,10.554159160,-0.027154390,0.018107890,-0.005283950
1640791203.610669,0.268740620,0.646406890,10.057059290,-0.048759580,0.037460030,-0.006583330
1640791203.612180,0.216431710,1.037381650,10.352669720,0.014588240,-0.021822750,-0.026534500
1640791203.615690,0.050818390,0.854555070,10.447708130,0.015547870,-0.042019780,-0.020153820
1640791203.617300,0.188413960,0.688147840,9.648624420,0.031249230,-0.068958090,0.005368890
1640791203.620669,-0.060399050,0.241513590,9.748840330,0.026582180,-0.026279690,-0.017164650
1640791203.623040,0.106055040,0.005383630,9.607997890,-0.000242890,0.032731890,-0.004522500
1640791203.628710,-0.027801450,0.286935180,10.152075770,-0.033664700,0.019052620,0.006793440
1640791203.629330,-0.025989870,0.013621400,10.243352890,-0.082309550,0.002405050,-0.007033350
1640791203.630620,0.212374050,0.131431910,9.775331500,-0.016593930,-0.073714560,0.003948810
1640791203.632180,0.012227810,0.250611100,9.784839630,0.049306460,-0.019438560,-0.040924560
1640791203.636010,0.275039170,0.094363820,9.433176040,0.033304100,0.047293310,-0.024676320
1640791203.637300,0.034788560,0.295684670,10.401550290,0.023326280,0.028964880,0.007416310
1640791203.640820,-0.105028740,0.067193100,10.401484490,-0.020270050,0.001287460,-0.009930130
1640791203.642239,0.047779840,0.041153800,9.725527760,0.015136600,-0.105872770,0.014585260
1640791203.645690,-0.304947560,0.169548300,9.635239600,0.050929190,-0.019417710,-0.002628560
1640791203.647260,-0.015757690,-0.036117960,9.269334790,0.035905840,0.044791400,-0.028651950
1640791203.650660,-0.038086130,0.246270240,10.147764210,0.062128910,0.007948280,-0.009341540
1640791203.652570,0.102354340,0.319322850,10.016274450,0.030843910,0.023320320,-0.021065770
1640791203.655880,0.382512540,0.287700210,10.075036050,0.016683340,-0.027838350,0.002570450
1640791203.657280,-0.126829420,0.529009280,10.436355590,0.019894540,-0.008618830,-0.000767410
1640791203.661690,-0.198838490,0.222318690,9.819128040,0.025698550,-0.081001240,-0.023254760
1640791203.662210,-0.313270870,0.208542990,9.793047900,0.095584980,-0.093112870,-0.006847080
1640791203.665690,-0.413939360,0.302534970,9.576023100,0.080212960,0.016602880,-0.030148030
1640791203.667260,-0.134497600,0.352805580,10.021528240,0.015486780,0.003945830,-0.002475080
1640791203.671909,-0.142749910,0.696315650,10.609947200,-0.030152500,0.000715260,0.009316210
1640791203.672809,0.219339250,0.670678380,9.910796170,-0.053212050,-0.047437850,-0.014838580
1640791203.675779,0.276104090,0.698369440,10.216103550,0.036850570,-0.073078270,0.008343160
1640791203.677230,0.122395700,0.746788980,9.831805230,0.045283140,-0.009855630,-0.012938680
1640791203.680610,0.266732190,0.440411960,9.542987820,0.006911160,-0.071933870,0.007088480
1640791203.682170,0.074193110,0.313826080,10.200552940,-0.012378400,-0.026953220,0.024460260
1640791203.686250,0.092284250,0.192201690,9.720202450,-0.051115460,0.029988590,-0.012499100
1640791203.687250,-0.063823160,0.251029910,10.302818300,-0.026841460,-0.080543760,0.030300020
1640791203.691190,-0.245442380,0.165076910,10.241909030,-0.011868770,-0.042927270,0.002859530
1640791203.695010,0.192422380,-0.048806210,9.109407420,0.007887190,-0.051487980,-0.019156930
1640791203.695619,-0.037779540,0.175103590,9.982958790,0.053140520,-0.022363660,0.000055130
1640791203.697240,0.116733610,0.230427490,9.777432440,-0.017388170,0.067333880,-0.012567640
1640791203.700640,0.249379130,0.175176470,9.984597210,-0.043332570,-0.055135790,0.026825070
1640791203.702570,-0.073272850,0.140226070,10.626195910,0.004179780,-0.067555900,0.012950600
1640791203.705770,0.146220860,-0.137577880,9.512541770,0.046335160,-0.051234670,-0.006392600
1640791203.708830,-0.037958110,-0.044359110,9.524730680,0.108034920,-0.048285720,0.011213120
1640791203.710579,-0.221201870,0.063520670,10.145233150,0.050100700,0.031767790,-0.012846290
1640791203.712220,0.053242960,0.218758610,9.780418400,-0.013409560,-0.008067490,0.017343460
1640791203.715659,-0.043507220,0.417267680,10.021371840,-0.008438530,-0.085487970,0.019262730
1640791203.717260,0.054579330,0.407607590,10.073913570,0.013734400,-0.020642580,-0.007776920
1640791203.720850,0.005305720,0.524423900,9.869308470,0.081104030,-0.000868740,0.002534690
1640791203.722299,-0.325331000,0.470527680,10.611427310,0.075688970,-0.101685540,-0.010466580
1640791203.726169,-0.188224630,0.175560500,10.170534130,0.042229900,-0.072482240,0.012901430
1640791203.727229,0.049115850,0.191773770,9.110664370,0.038918850,-0.049361590,0.020533800
1640791203.730650,-0.079795390,0.318692800,10.376996040,0.003568830,-0.012075900,0.007458030
1640791203.732210,0.105082150,0.572437350,9.982140540,-0.018429760,0.042007860,0.040549030
1640791203.736260,0.255976860,0.542096020,9.904673580,-0.002582370,-0.130783020,0.015285610
1640791203.740939,0.172337760,0.514670910,10.400188450,0.040717420,-0.072443490,0.016066430
1640791203.741900,0.320713160,0.720859110,9.074796680,0.034734610,0.020229820,0.015704340
1640791203.742309,0.036268260,0.409599540,10.414472580,-0.031672430,-0.069104140,0.017143790
1640791203.745610,-0.179335300,0.236021120,10.525068280,-0.025488440,-0.014388560,0.030395390
1640791203.747249,-0.001822960,0.085348250,9.284964560,0.011053680,-0.094930830,0.012853740
1640791203.750710,-0.298513080,-0.157903180,10.287306790,0.039193040,-0.114364940,0.024880470
1640791203.752539,-0.144866560,0.069039490,9.291079520,0.023746490,0.029566890,0.022494790
1640791203.755800,0.213110770,0.003828690,9.540589330,-0.020022690,-0.042493650,0.005944070
1640791203.758309,0.098293380,0.183290180,10.677236560,0.006771090,-0.010585780,0.032360860
1640791203.761070,0.455129060,0.495369640,9.483798030,-0.000837450,0.000439580,0.017988680
1640791203.762189,0.209527600,0.255235430,10.467698100,0.013293330,-0.107389700,0.022494790
1640791203.766600,-0.173648310,0.291806940,10.310299870,0.057379900,-0.057445460,0.026442110
1640791203.767470,-0.033787210,0.106028800,9.167962070,0.057421620,-0.109173360,-0.008137520
1640791203.770700,-0.300990070,-0.009809410,9.969592090,0.051648920,-0.068721180,0.025928030
1640791203.772210,-0.134356720,0.285156820,9.733926770,0.015665590,0.059600190,0.025203830
1640791203.775660,0.015823160,0.328682010,10.369670870,-0.024425990,-0.044634940,0.011259320
1640791203.777220,-0.015878630,0.553665100,10.574110980,0.000981990,-0.090055190,0.032745300
1640791203.780629,0.216352610,0.671510220,9.486598970,0.024744870,-0.075085450,-0.002917650
1640791203.782250,-0.102846090,0.524894890,10.154419900,0.056447090,-0.079262260,0.007748600
1640791203.786110,-0.263254670,0.627368330,10.008877750,0.030522050,-0.071974110,0.034403800
1640791203.787740,0.012719010,0.366978080,9.716843610,-0.028261550,-0.087167330,0.023646650
1640791203.790930,0.024336490,0.217341330,10.221412660,-0.018610060,-0.029015540,0.039356950
1640791203.792179,0.160155590,0.456985650,9.998313900,-0.017756230,-0.011388960,0.030711300
1640791203.795719,0.086611260,0.349434940,10.447554590,-0.023145980,-0.092743340,0.031055510
1640791203.797200,0.202972320,0.309432980,9.805149080,-0.017465650,-0.106652090,0.034603470
1640791203.800720,0.391379000,0.306199430,9.279797550,-0.010372700,-0.077135860,0.017620620
1640791203.802199,0.120069880,0.216373890,9.988023760,-0.002491470,-0.000356140,0.020839270
1640791203.805699,0.084401760,0.360005680,9.978828430,-0.046783690,-0.010962790,0.035586960
1640791203.807360,-0.181851400,0.112549300,10.632185940,-0.044806310,-0.129584970,0.031909350
1640791203.810660,-0.220416560,-0.104976820,9.963402750,0.015778840,-0.108782930,0.030869250
1640791203.812240,-0.045195680,-0.030498760,9.122985840,0.039391220,-0.076496610,0.022150580
1640791203.815739,-0.275697260,-0.027272220,9.933139800,0.026258830,-0.008396800,0.026622420
1640791203.817279,0.186659230,0.240655570,9.690650940,-0.021767610,0.002689660,0.041110820
1640791203.824350,0.281707020,0.421965600,10.244661330,-0.037963690,-0.082470470,0.040777030
1640791203.824940,0.289223490,0.370556530,10.051913260,-0.002312660,-0.066815310,0.051099060
1640791203.825600,0.418181660,0.355333980,9.846245770,0.034295020,-0.063507260,0.019900500
1640791203.827309,-0.136993960,0.240270580,10.476043700,0.059109930,-0.060881670,0.017070770
1640791203.830629,-0.143997970,0.235219670,9.791025160,0.046485670,-0.101019440,0.023323300
1640791203.832680,-0.198407520,0.248637800,9.835996630,-0.012087820,-0.108544530,0.028242180
1640791203.836259,-0.120439450,0.363381980,9.522053720,-0.044250500,-0.013084710,0.041638310
1640791203.837839,0.023800400,0.628974910,10.110998150,-0.050018730,-0.019465390,0.039742890
1640791203.841100,-0.106571410,0.620801690,10.781181340,-0.019803650,-0.041551880,0.039890400
1640791203.842229,0.173811990,0.564324800,9.937126160,0.017239160,-0.133992730,0.039467220
1640791203.845630,0.140477310,0.605005980,10.145288470,0.009676810,-0.110098720,0.034254790
1640791203.847400,0.137305810,0.523754000,9.429412840,-0.069043030,-0.005389750,0.062605740
1640791203.850630,0.300823630,0.358931120,9.881694790,-0.102524470,-0.063870850,0.066892800
1640791203.852200,0.016945700,0.057999400,10.624196050,-0.054524840,-0.005343560,0.048954780
1640791203.855749,0.232203220,0.074493570,9.558822630,0.007563830,-0.094738600,0.045166900
1640791203.860450,0.012080050,0.148377120,10.304997440,0.007118280,-0.126944500,0.048446660
1640791203.861179,0.028877440,0.096459700,9.360237120,-0.075469900,0.021317600,0.037293130
1640791203.862210,0.238958660,0.280104100,9.429686550,-0.093154610,-0.068777810,0.038947170
1640791203.865660,-0.147902970,0.373042430,10.789025310,-0.053073470,0.002171100,0.037145620
1640791203.867240,0.184834700,0.356475470,9.324071880,-0.029438730,-0.011210140,0.028587880
1640791203.870920,-0.133339660,0.269022760,10.651985170,0.023302430,-0.165072080,0.042702250
1640791203.872229,-0.442051140,-0.059228700,10.170937540,0.012747940,-0.031447410,0.041440130
1640791203.875790,0.124680410,-0.060538230,8.578094480,-0.019852820,-0.098383430,0.042416160
1640791203.877240,-0.220008430,0.035324800,10.662802700,-0.033143170,-0.033563380,0.040502850
1640791203.880760,0.328856560,0.300354570,9.474081040,-0.068996850,0.090670590,0.033877790
1640791203.882259,0.549189210,0.524502460,10.228516580,-0.032977760,-0.124815110,0.041735180
1640791203.885650,0.086679020,0.465855420,10.991993900,-0.005295870,-0.041185320,0.027871130
1640791203.887750,0.443905950,0.546801630,8.865923880,0.000759960,-0.067138660,0.014771520
1640791203.891360,-0.307553800,0.450583040,10.657455440,0.005932150,-0.150246960,0.044560440
1640791203.892230,-0.454587670,0.329247800,9.904223440,-0.061562660,0.007997450,0.043830280
1640791203.895789,0.019512410,0.333331880,9.118228910,-0.056436670,-0.094461460,0.045517090
1640791203.897280,-0.382629310,0.395895690,10.929602620,-0.046595930,-0.014677640,0.049114230
1640791203.900640,0.251804260,0.675802350,9.525712010,-0.078503790,0.064928840,0.042833390
1640791203.902210,0.259429540,0.612427410,10.409994130,-0.068216030,-0.130788980,0.054411590
1640791203.905779,0.058652600,0.404436200,10.428302760,-0.055305660,-0.065965940,0.039669870
1640791203.907310,0.706808920,0.503879010,8.545267110,-0.046819450,-0.057052080,0.034852330
1640791203.910820,0.164387260,0.263418530,10.392604830,-0.064934790,-0.020810960,0.053158410
1640791203.912230,0.206859480,0.021422410,10.158779140,-0.094622390,0.062488030,0.054432460
1640791203.915629,0.184841100,-0.033584410,10.165628430,-0.040645900,-0.115379700,0.054918230
1640791203.917240,-0.302381690,-0.197926820,10.349947930,-0.025887790,-0.090949240,0.060990450
1640791203.921310,0.100280580,0.002824560,8.882513050,-0.054180620,-0.016430020,0.053891530
1640791203.922289,-0.160606130,0.091459560,9.973459240,-0.070168080,-0.000879170,0.028091670
1640791203.925740,0.118836340,0.230935450,9.849976540,-0.072269160,0.036852070,0.037837040
1640791203.927420,0.460026920,0.560275140,9.705819130,-0.036031010,-0.016412140,0.050599880
1640791203.930790,0.079993360,0.347359210,10.695920940,-0.036053360,-0.012721120,0.031454860
1640791203.932269,0.136404860,0.293293240,9.942131040,-0.026842950,-0.081114470,0.046183170
1640791203.935639,-0.174172920,0.067541290,9.680501940,0.007356700,-0.108762100,0.036342450
1640791203.937559,-0.103836460,-0.209076780,9.292910580,-0.017859050,0.019025800,0.030946740
1640791203.941769,0.069265880,0.200101940,9.746824260,-0.020517410,0.036124890,0.054354970
1640791203.942400,-0.120922990,0.307140050,10.734297750,-0.055558980,0.019061560,0.033375620
1640791203.945720,0.353523550,0.532278840,9.870832440,-0.096625100,-0.057913370,0.043126930
1640791203.947229,0.147434290,0.726264950,10.046596530,-0.053681440,-0.054988270,0.044795870
1640791203.950620,0.013204660,0.393305630,10.117311480,-0.013260540,0.016155840,-0.000412760
1640791203.952270,-0.010570730,0.593478500,9.919866560,0.027640170,-0.054422020,0.036549570
1640791203.955720,-0.249542740,0.495687190,10.050353050,-0.034047660,-0.059932480,0.029005120
1640791203.957630,0.225344750,0.219436150,9.259381290,-0.124709310,0.021557510,0.046382840
1640791203.962450,0.090496550,0.575026330,10.067359920,-0.106304880,0.032290820,0.070957840
1640791203.963699,-0.071831220,0.259252670,10.594455720,-0.084176670,0.017882880,0.047498950
1640791203.965610,0.322013850,0.255169420,9.778020860,-0.023838880,-0.087891500,0.051344930
1640791203.967239,0.090446070,0.408400360,9.765457150,-0.012579560,-0.061176720,0.033585730
1640791203.971130,0.296237110,0.102773250,9.332706450,-0.098657620,0.066718460,0.034673510
1640791203.972280,0.160454470,0.270457030,10.088517190,-0.110907860,0.042581560,0.052407390
1640791203.975630,-0.161797550,0.037018880,10.627661710,-0.081227710,-0.035995240,0.026649240
1640791203.977270,0.169265050,-0.050454520,9.540585520,-0.007857380,-0.087386380,0.034317370
1640791203.980650,-0.151362760,0.178800030,9.489550590,-0.001610820,-0.019872190,0.032675270
1640791203.982250,-0.138758210,-0.095309970,9.741230010,-0.069896880,0.053583090,0.021103020
1640791203.985649,0.026092130,0.119732360,10.184861180,-0.058002770,0.011847910,0.042435530
1640791203.987560,-0.007721430,0.352290270,10.078224180,-0.042964520,-0.035853690,0.033797320
1640791203.991690,0.350942370,0.278156040,9.757055280,-0.043582920,-0.019243360,0.039413580
1640791203.994140,0.076001080,0.652620140,10.059236530,-0.046914820,0.034257770,0.048919030
1640791203.995720,-0.119824990,0.286963670,10.258481980,-0.056111810,-0.037433210,0.038476290
1640791203.997249,-0.080438600,0.168259560,10.068238260,-0.005972390,-0.078277290,0.043682760
1640791204.000620,-0.171905850,0.431128530,9.427563670,-0.013665850,-0.030975040,0.019362570
1640791204.002210,0.063201770,0.396443900,9.684665680,-0.079202660,0.004677470,0.038988890
1640791204.005720,0.094573170,0.792695220,10.298229220,-0.129772740,0.077790030,0.056266780
1640791204.007810,0.155044810,0.662295220,10.265491490,-0.159034150,-0.006642940,0.023707750
1640791204.010720,0.294164120,0.490334630,10.406652450,-0.055301190,-0.073072320,0.041723260
1640791204.012250,0.112503510,0.584348260,9.722616200,-0.007836520,-0.013297800,0.035613770
1640791204.015650,0.057256050,0.152559890,9.536073680,-0.075879690,-0.051432850,0.050553680
1640791204.017269,-0.054389220,0.068587630,10.048338890,-0.121852760,-0.002105530,0.072394310
1640791204.020939,0.070320260,-0.056629330,9.520042420,-0.131098930,0.044870380,0.045371060
1640791204.023759,0.156044110,-0.034355420,10.112730980,-0.081197910,-0.017873940,0.068452950
1640791204.029120,-0.019308130,0.248275620,10.417014120,-0.069034090,0.039403140,0.045862790
1640791204.029760,0.146058720,0.049351160,9.607955930,-0.092530250,-0.057846310,0.022390480
1640791204.030589,-0.004792880,0.124240840,10.025959970,-0.033994030,-0.077429430,0.043639550
1640791204.032230,0.032951030,0.213650120,9.138711930,-0.050172220,0.072963540,0.010433790
1640791204.036080,0.121111030,0.117181960,9.803596500,-0.087592010,0.002396110,0.038510560
1640791204.037330,-0.229133100,0.235149500,10.956405640,-0.066488990,-0.003179910,0.052878270
1640791204.040769,0.041170400,0.110965510,9.589023590,-0.061319770,-0.039038050,0.026434660
1640791204.042400,-0.178261650,0.042786800,10.147850990,-0.009408590,-0.116905570,0.059418380
1640791204.045640,-0.270947640,0.203779380,9.799834250,-0.014472010,0.042995810,0.026361640
1640791204.047430,0.079561770,0.229130730,9.363208770,-0.062923130,-0.010687110,0.034007430
1640791204.050619,-0.101911210,0.428693830,10.713684080,-0.058598820,-0.034631790,0.075028840
1640791204.052559,0.312451540,0.422620680,9.594435690,-0.081397590,0.036780540,0.026333330
1640791204.055869,0.230603710,0.389205690,10.173651700,-0.037291650,-0.068148970,0.031077870
1640791204.057720,-0.294838040,0.469317050,10.763401030,-0.015111270,-0.040788940,0.036779040
1640791204.061060,-0.069275370,0.115012870,9.260221480,-0.040036440,-0.090308490,0.015667080
1640791204.062520,-0.186234740,0.148735400,9.856605530,-0.016698240,-0.116120280,0.046946110
1640791204.065650,0.009527970,0.411844160,9.504937170,-0.067186360,0.087994340,0.036571920
1640791204.067350,0.303170740,0.439941320,9.739663120,-0.126013160,0.033050780,0.057408220
1640791204.070840,0.084219060,0.465686020,11.059030530,-0.093169510,-0.044552990,0.076361010
1640791204.072420,0.451623560,0.219045710,9.739703180,-0.028918690,-0.051374730,0.021609670
1640791204.075770,0.306741830,0.127036780,9.428911210,0.030881170,-0.112302600,0.030373040
1640791204.077319,-0.081010740,0.092146190,9.731777190,-0.023436540,0.019538400,0.036285810
1640791204.080629,0.085813080,-0.220959890,9.527878760,-0.092588360,0.034189220,0.025194880
1640791204.082219,-0.154277120,-0.231978270,10.446910860,-0.033062690,-0.062906730,0.051967790
1640791204.086050,-0.040229120,-0.056003420,9.904201510,-0.002965330,-0.011885170,0.029733780
1640791204.087420,0.123353840,0.047784250,9.489443780,0.001414120,-0.027647620,0.014784930
1640791204.092589,-0.086215840,0.301566300,10.157918930,-0.012733050,-0.012208520,0.018709900
1640791204.093940,0.108163950,0.359725480,9.825240140,-0.021740800,0.008425120,0.010699030
1640791204.095660,0.184796650,0.362308200,9.735642430,0.008429590,-0.050804020,0.041332840
1640791204.097280,0.137323510,0.431278440,10.029014590,0.003188850,0.002138320,0.050076850
1640791204.100659,-0.015170260,0.281770170,10.244077680,-0.008608400,0.017312170,0.027389820
1640791204.102650,-0.243762960,0.169102210,10.261459350,0.010925530,-0.088332590,0.044961270
1640791204.105739,-0.217084770,0.069462400,9.878787040,0.025899710,-0.091809020,0.027798110
1640791204.107770,-0.026699580,0.116220330,9.243299480,0.029505790,0.013947490,0.012892490
1640791204.110630,0.079261820,0.607428730,9.809356690,-0.038054590,0.036510830,0.024098160
1640791204.112239,0.153186630,0.813279690,10.496142390,-0.105269270,0.043238700,0.028708580
1640791204.115630,0.389348510,0.674616520,10.010588650,-0.065721570,-0.040273380,0.037924950
1640791204.117309,0.210605740,0.633742750,10.373863220,0.018183890,-0.076648590,0.031141940
1640791204.121009,-0.067961440,0.394728510,9.899982450,0.031699240,-0.025573370,0.028857590
1640791204.122619,-0.006808780,0.037369020,9.312764170,-0.016306340,-0.062417990,0.055108960
1640791204.127679,-0.067700480,-0.196226120,9.947138790,-0.054569550,0.017790500,0.049144030
1640791204.128250,0.144243490,-0.192990450,9.608681680,-0.046685330,0.081619630,0.037378070
1640791204.130659,0.260969640,0.083180520,10.211687090,-0.029660760,-0.030036270,0.051112470
1640791204.132259,0.088144320,0.222860370,10.396949770,-0.023865700,-0.010827180,0.031510000
1640791204.135959,0.387613710,0.152606760,9.163588520,-0.011669100,-0.042253730,0.006054340
1640791204.138310,0.101454390,0.177713300,9.944731710,0.029271840,-0.015079980,0.017724930
1640791204.140650,-0.087876450,0.144089220,9.764038090,0.040400030,0.078232580,0.019358100
1640791204.142259,0.018152880,0.130692170,9.898900990,0.011986490,-0.042782730,0.035034110
1640791204.145630,-0.359586300,0.135580300,10.609240530,-0.014379620,-0.036618120,0.043621670
1640791204.147300,0.037670410,-0.108106390,9.069408420,0.005316730,-0.001944600,0.029768050
1640791204.150669,0.022892690,-0.078650540,9.887126920,0.083385420,-0.016720590,0.017467140
1640791204.153010,-0.126624930,0.240270000,10.110457420,0.075343250,0.079315910,0.002124910
1640791204.155759,0.423248770,0.431363050,9.458634380,-0.001394750,-0.038450960,0.015538930
1640791204.157359,0.150418430,0.523819330,10.567782400,-0.030900540,-0.015337770,0.027473270
1640791204.160660,0.176107320,0.389606030,9.638112070,-0.007011000,0.035482650,0.008225440
1640791204.162269,-0.004640430,0.302084680,10.214763640,0.081080200,-0.076393790,0.009222330
1640791204.165629,-0.557858770,0.294986430,10.417935370,0.101329390,-0.029613080,0.011694430
1640791204.167410,-0.033178140,0.138565260,8.967141150,0.036427370,-0.045746560,0.027160340
1640791204.171020,-0.129288080,0.210753800,10.135529520,-0.005100670,-0.006891790,0.042562190
1640791204.172310,0.016450380,0.420439240,9.933248520,-0.039561100,0.115875900,0.020900370
1640791204.175629,0.482940320,0.627172650,10.057499890,-0.019647180,-0.018684570,0.034645200
1640791204.177250,0.095271450,0.730006340,10.815480230,0.025977200,-0.037129220,0.027661030
1640791204.180650,0.379317190,0.467430410,9.186803820,0.034284590,-0.052554910,0.001850720
1640791204.182210,0.243066160,0.361036120,9.570749280,0.043481590,-0.050857660,0.017055870
1640791204.185649,-0.177228110,0.124704120,9.916411400,-0.004817550,0.086866320,0.025966770
1640791204.187620,0.149558590,-0.184870820,9.699357030,-0.015300520,0.005124510,0.030785800
1640791204.191710,-0.247527000,-0.089724900,10.693252560,0.023657080,-0.040085620,0.024570530
1640791204.192390,0.014838340,-0.033283270,9.301313400,0.025133790,0.010357800,0.009366870
1640791204.195670,0.195730920,0.067747130,9.457120900,0.022460520,-0.021140280,0.012309850
1640791204.197280,-0.082418370,0.197046490,10.112944600,0.022411350,0.081133840,-0.004412230
1640791204.200980,0.361109020,0.170854450,9.487443920,0.042822960,0.013919180,-0.008007880
1640791204.202250,0.080761360,0.337311150,10.427984240,0.072160360,-0.041082510,0.005815920
1640791204.205740,-0.032044200,0.178490940,9.667632100,0.028514860,0.019767880,0.013820830
1640791204.207399,0.029132490,-0.097349060,9.668007850,0.053927310,-0.056990990,0.011694430
1640791204.211690,-0.423394500,-0.133797380,10.282258990,0.095613310,0.003728270,-0.004638730
1640791204.212240,0.081021780,-0.105132620,8.993918420,0.110179190,0.005529820,-0.001317260
1640791204.216050,0.114566090,0.277728200,10.113758090,0.084108130,0.014086070,0.015120210
1640791204.217280,0.058007760,0.616303740,10.113609310,-0.013990700,0.099335610,0.001792610
1640791204.221079,0.324248610,0.650202510,9.978651050,-0.013019150,-0.063936410,0.012093780
1640791204.222460,-0.104492380,0.624394300,10.553677560,0.081591310,-0.057888030,-0.004428620
1640791204.228010,0.019906420,0.501363990,9.171570780,0.121840850,-0.007927420,-0.027434530
1640791204.228829,-0.142851870,0.449897530,9.991110800,0.109687460,-0.045934330,0.010320550
1640791204.230700,-0.325375380,0.304805820,10.108662610,-0.010980670,0.054073330,0.018236040
1640791204.232610,0.249564110,0.128187220,9.494754790,-0.039477650,-0.015841430,0.033819680
1640791204.235669,-0.002260320,0.238202540,10.700109480,0.034034260,0.005453830,0.012612340
1640791204.237640,0.217972980,0.390936580,9.490031240,0.045922410,0.026464470,-0.005316740
1640791204.241619,0.431832670,0.427709280,9.598046300,0.056724240,-0.091640640,0.020088250
1640791204.242260,0.228918920,0.320705260,9.925085070,0.018310550,0.066664810,-0.001947580
1640791204.245640,0.477857140,0.232718810,9.283510210,-0.004591050,0.054852660,-0.003053250
1640791204.247390,-0.059997710,0.250543620,10.874786380,0.039410590,-0.018641350,0.019341710
1640791204.250640,-0.216035720,-0.000851910,9.963665960,0.025351350,0.003536050,0.001417100
1640791204.252260,-0.120679250,-0.115326720,9.368628500,0.072751950,-0.112956760,0.009901820
1640791204.255800,-0.388178500,-0.066189280,9.798166280,0.086933380,0.018666690,-0.006048380
1640791204.257560,0.281938970,0.087647120,8.470515250,0.022438160,0.123049330,-0.008681420
1640791204.260820,0.261930970,0.311149000,10.494148250,0.023010380,0.055162620,0.019426640
1640791204.262280,0.318324090,0.279391140,10.601300240,0.021021070,0.099952500,0.003096460
1640791204.265650,0.497241970,0.133379130,9.566242220,0.087560700,-0.101459010,0.004924830
1640791204.267330,-0.138442100,0.013136810,10.171281810,0.157640870,-0.063361230,-0.009012220
1640791204.270920,-0.099863380,-0.245361480,8.771042820,0.106437500,0.071424250,-0.033460560
1640791204.273890,-0.391581000,-0.192214250,9.955494880,0.103229290,-0.021189450,-0.001493100
1640791204.275640,-0.524943590,-0.082877240,10.443242070,0.075408820,0.061388320,0.000901520
1640791204.277289,0.107388590,0.096598760,9.227363590,0.081647940,-0.001923740,0.009240210
1640791204.280860,-0.157313970,0.587225080,10.714237210,0.118328650,-0.013165180,0.003787880
1640791204.282260,0.061660850,0.693749960,9.852849960,0.072708730,0.083725150,-0.017271940
1640791204.285670,0.281586890,0.775277500,9.546586990,0.105708850,-0.093819200,0.002390150
1640791204.287730,0.090490490,0.740806880,10.228087430,0.112238550,0.001643600,-0.006978220
1640791204.290979,0.510550200,0.608530640,8.945420270,0.057043150,0.083944200,-0.011511150
1640791204.292300,-0.005610320,0.556863430,10.618700030,0.050546240,-0.023919340,0.022344290
1640791204.296130,-0.282766430,0.016052210,10.586236000,0.046148900,0.025075670,0.001716610
1640791204.297570,0.001944940,-0.203402010,9.169770240,0.121109210,-0.102867200,-0.007824600
1640791204.300619,-0.384721520,0.043012470,10.028694150,0.134193910,-0.042665000,-0.001046060
1640791204.302270,0.111393300,0.139730470,8.952665330,0.007326900,0.141368810,-0.007900600
1640791204.305719,0.373042320,0.381120030,9.856335640,-0.007672610,0.022707880,0.012458860
1640791204.307420,0.151645530,0.411935990,11.013873100,0.042594970,0.055287780,-0.009848180
1640791204.310700,0.577374340,0.423862040,9.402103420,0.116549420,-0.025352840,-0.014978650
1640791204.312430,-0.065812410,0.389123440,10.047829630,0.147365030,-0.110414650,0.001099710
1640791204.315660,-0.215718610,-0.012624830,9.468332290,0.065764790,0.042720140,-0.014039880
1640791204.317270,-0.000637330,-0.157588150,8.970372200,0.072850290,0.003543500,-0.006118420
1640791204.320930,-0.281244720,-0.003142540,10.357356070,0.089006130,0.052724790,-0.007574260
1640791204.322300,0.188250090,0.098521430,9.708412170,0.061635680,0.097806750,-0.014743210
1640791204.327679,0.094859140,0.313913520,10.245090480,0.093242530,-0.046922270,-0.006920100
1640791204.329310,-0.052326660,0.235785010,10.213370320,0.091710690,-0.012658540,-0.032360850
1640791204.331020,0.233948600,0.178868250,8.934057240,0.132660570,0.000439580,-0.030660630
1640791204.332310,-0.296371160,0.231551220,10.133424760,0.152905290,-0.011360650,-0.032457710
1640791204.335670,-0.173284830,0.223929020,10.003170010,0.084118550,0.051231690,-0.025887790
1640791204.337540,-0.080953760,0.294109910,9.842549320,0.079862770,-0.042895980,-0.007094440
1640791204.340720,-0.279588190,0.226108490,10.464026450,0.087353590,-0.013451280,-0.022827090
1640791204.342280,0.056389090,0.342443970,9.645370480,0.125022230,0.028365850,-0.033022460
1640791204.345700,-0.059100700,0.643247960,9.925689700,0.143302980,-0.044867400,-0.019492210
1640791204.347309,0.090726290,0.755787250,9.824994090,0.050853200,0.013719500,-0.012999770
1640791204.350649,0.554834190,0.829557300,9.063018800,0.013785070,0.026153030,0.003325940
1640791204.352330,0.194586140,0.702742160,10.354587550,0.035901370,0.037975610,-0.020138920
1640791204.355720,0.109229910,0.534255450,10.457717900,0.052182380,0.033731750,-0.028176610
1640791204.357380,-0.179687810,0.233637590,10.052069660,0.105786320,-0.104555500,-0.014726820
1640791204.361080,-0.435542170,-0.212722480,9.923567770,0.093197840,-0.099295400,-0.031793130
1640791204.363799,-0.024138700,-0.134567250,8.777982710,0.065332660,0.064326820,-0.018204750
1640791204.365630,-0.097892190,0.000845370,9.706440930,0.020483130,0.086358170,-0.013807420
1640791204.367300,0.221540360,0.107910980,10.538408280,-0.003923480,0.077216330,-0.008574130
1640791204.370930,0.577733640,0.327705380,9.853895190,0.072607410,-0.007270280,-0.003090500
1640791204.374680,0.324830740,0.290081080,10.108697890,0.121526440,-0.080776210,-0.024114550
1640791204.375640,0.248270570,0.338064790,9.339038850,0.103747840,0.012794140,-0.014081600
1640791204.377570,-0.007717420,0.156118780,9.272624970,0.072371970,0.014391540,-0.027568640
1640791204.380640,-0.265821010,-0.053157170,10.267875670,0.061593940,0.015762450,-0.022946300
1640791204.382290,-0.165270720,0.111817260,9.715398790,0.105308000,0.027146940,-0.004374980
1640791204.385680,-0.286600200,-0.014165160,9.969502450,0.104382630,-0.028756260,-0.033205740
1640791204.387709,-0.271906020,0.110489250,10.176247600,0.089450190,0.008232890,-0.024329130
1640791204.391600,-0.078748990,0.296215180,9.252367970,0.101235510,-0.005058940,-0.036537640
1640791204.392290,0.096075170,0.232984800,9.806768420,0.105971100,-0.022684040,-0.036707510
1640791204.395670,0.327149120,0.602636870,9.670122150,0.108820210,0.085534160,-0.002232190
1640791204.397699,0.259073140,0.651910900,10.031904220,0.067539510,0.015667080,-0.021307170
1640791204.400620,-0.022643690,0.496789720,10.809725760,0.050847240,-0.059106950,-0.004650650
1640791204.402230,-0.060931190,0.467280300,9.452255250,0.098638240,-0.066499400,-0.016376370
1640791204.410390,-0.209660960,0.102482630,9.626296040,0.123843550,-0.067935880,-0.037296120
1640791204.410840,-0.324643550,0.421120290,9.933135030,0.101016450,0.057621300,-0.011788310
1640791204.411219,-0.073379320,0.598923390,9.657828330,0.009402630,0.030259790,-0.013655430
1640791204.412269,0.170103610,0.477093940,10.384813310,-0.040905180,-0.009492040,-0.003460050
1640791204.415629,0.235821310,0.813117800,10.045021060,0.020615750,0.029292700,-0.006845590
1640791204.417280,0.084593720,0.578705430,10.026803970,0.061215470,-0.074602680,-0.034138570
1640791204.421039,-0.041709940,0.497789200,9.971296310,0.073939570,-0.084641580,-0.003656740
1640791204.422299,-0.024193610,0.290799050,9.189361570,0.041592120,-0.008799140,-0.032263990
1640791204.427800,0.008192010,0.040263020,9.816372870,-0.006090110,0.027734040,-0.024807460
1640791204.429119,-0.075662640,0.481893390,10.293733600,-0.025540590,0.041151050,0.017724930
1640791204.430620,0.027352140,0.348735060,9.966464040,-0.052173440,-0.043679780,-0.011362140
1640791204.432240,0.218930710,0.186807780,9.845216750,-0.005550680,-0.067450110,-0.000728670
1640791204.435660,0.200982020,0.280919100,9.372560500,0.082640330,0.018490850,-0.018125770
1640791204.437620,0.208933650,-0.039880480,9.562805180,0.059473510,0.028736890,-0.029861930
1640791204.440729,0.065530100,0.077284810,10.317109110,0.016039610,0.011108820,0.006087120
1640791204.443349,-0.065105390,-0.001554620,9.970007900,-0.037628410,-0.028246640,-0.017139320
1640791204.445619,-0.146083000,-0.319056660,9.941566470,0.004927810,-0.086942330,-0.006030500
1640791204.447310,-0.393906650,-0.009883350,9.526278500,0.104130790,-0.030358130,-0.025501840
1640791204.450660,-0.283594010,-0.085512980,9.388889310,0.102469330,-0.004726650,-0.060674550
1640791204.452280,-0.203603920,0.231225510,10.113528250,0.078652820,-0.000131130,-0.016815970
1640791204.455720,-0.014277820,0.577511550,9.859821320,0.014369190,0.007295610,-0.009287890
1640791204.457430,0.322214510,0.456981930,10.050655360,-0.013563040,-0.047834210,-0.000123680
1640791204.460800,0.130086390,0.706750510,10.165097240,0.046585500,-0.018243490,0.010444220
1640791204.462340,0.006878650,0.425075470,9.789509770,0.086158510,-0.065165770,-0.031073400
1640791204.465639,-0.070051000,0.155470000,9.889533040,0.115695610,-0.101777910,-0.012102730
1640791204.467280,-0.199874730,0.254939530,9.496901510,0.088813900,-0.025326020,-0.012157860
1640791204.471020,-0.104515860,0.097473780,9.709559440,-0.000864270,-0.014774500,-0.024908780
1640791204.472940,-0.151416730,0.566065670,10.235723500,-0.043867520,-0.013750790,0.006107990
1640791204.476630,-0.051102400,0.688184380,10.005414960,-0.048682100,-0.040608650,-0.024150310
1640791204.477290,0.145958110,0.528701840,10.160350800,0.047343960,-0.072698290,-0.027553740
1640791204.480660,-0.048942120,0.861470700,9.899748800,0.095450870,-0.045959650,-0.024844710
1640791204.482280,0.085208720,0.529233990,9.523052220,0.007829070,-0.062976780,-0.013044480
1640791204.485649,0.164524090,0.227711920,9.796747210,-0.035862620,-0.029759110,0.013388690
1640791204.487439,0.118543870,0.242579160,9.760685920,-0.033231080,-0.001592930,-0.001549720
1640791204.490800,0.163554700,0.080209210,10.051620480,-0.011143090,-0.064718720,0.002197920
1640791204.494160,0.167548950,0.301592800,9.657402040,-0.000455980,-0.055187940,0.003981590
1640791204.495679,0.301728370,0.192920970,9.330085750,-0.029382110,-0.022146100,-0.037547950
1640791204.497320,0.201174480,0.103488500,10.126892090,0.002436340,0.008574130,-0.025351350
1640791204.500690,0.010979610,0.404888390,9.875974660,0.007936360,-0.007942320,-0.028423960
1640791204.502310,-0.031230020,0.222861770,9.882636070,-0.030064590,-0.098212090,-0.028032060
1640791204.505950,-0.228938920,0.213284610,9.835985180,-0.022085010,-0.036612150,-0.006982690
1640791204.507390,-0.253009620,0.009733230,9.333217620,-0.000835960,-0.038619340,-0.035393240
1640791204.510710,-0.262963860,-0.133344170,10.001161580,0.075577220,-0.038553780,-0.022338330
1640791204.512280,-0.138903690,0.227607070,9.703079220,0.058107080,0.017188490,-0.023314350
1640791204.515679,0.092020090,0.295456980,9.875364300,-0.037308040,-0.068226460,-0.025677680
1640791204.517279,0.153281080,0.460015330,10.121153830,-0.061263150,-0.045649710,0.002630060
1640791204.521740,0.368838820,0.477030310,9.418524740,-0.025206800,-0.005146860,-0.032214810
1640791204.523140,0.066322780,0.408756550,10.391955380,0.073148320,-0.066363810,-0.041773920
1640791204.526960,-0.127282500,0.701995550,10.015466690,0.063683100,-0.058701650,-0.040985640
1640791204.527459,-0.000228690,0.485261260,9.276371000,-0.044113400,-0.098040700,-0.023669010
1640791204.530660,-0.142896980,0.323652740,10.050827030,-0.055328010,-0.025263430,0.002682210
1640791204.532290,-0.074413190,0.469963910,9.756556510,-0.049412250,0.041417780,-0.030256810
1640791204.536120,-0.103760570,0.420806050,10.310451510,-0.022850930,-0.086361170,-0.014752150
1640791204.540959,-0.170144890,0.449492390,10.176843640,0.009143350,-0.078086560,-0.009995700
1640791204.542349,0.213388560,0.319691540,9.040611270,-0.031629200,-0.071625420,-0.036755210
1640791204.542729,0.139313970,0.309922010,9.788714410,-0.026246910,-0.046116110,-0.017941000
1640791204.545640,0.208930540,0.456246640,9.747023580,-0.073868040,0.055541100,-0.016734010
1640791204.547439,0.244647310,0.289274780,10.056111340,-0.081835670,-0.062949960,-0.004155930
1640791204.550710,0.017381680,0.307382290,10.387712480,-0.016011290,-0.105662640,0.006182490
1640791204.552450,0.175216670,0.207388400,9.115762710,-0.008378920,-0.060391420,-0.027838350
1640791204.555770,0.115717630,0.203273700,9.262516020,-0.017996130,-0.048449630,-0.012056530
1640791204.557340,-0.006404550,0.174565610,9.871245380,-0.057658560,0.058843200,-0.011923910
1640791204.560750,0.232119280,0.065076660,9.713682170,-0.064554800,-0.002038480,-0.041724740
1640791204.562330,-0.015763340,0.230467720,10.232789990,-0.015342240,-0.092145820,-0.011712310
1640791204.565660,-0.040626510,0.164312050,9.660660740,-0.031918290,-0.037691000,-0.039380790
1640791204.567730,-0.200472470,-0.027353680,9.556157110,-0.017336010,-0.074832150,-0.031976410
1640791204.570760,-0.321963910,-0.075632670,9.796486850,0.026038290,-0.043977790,-0.022523110
1640791204.572310,-0.044701020,-0.104694140,9.507836340,0.026504690,0.000920890,-0.024665890
1640791204.575680,0.097213010,0.173964600,9.665714260,0.012479720,-0.033378600,0.004352630
1640791204.577319,0.246153240,0.358594660,10.060477260,-0.058080250,0.013147290,-0.012367960
1640791204.580670,0.289652350,0.370144250,9.980802540,-0.048187370,-0.023400790,-0.021620100
1640791204.582270,0.118667980,0.417518790,9.828098300,0.045298040,-0.115434830,-0.026652220
1640791204.586120,0.062378730,0.322807310,9.709487920,0.063987080,-0.064143540,-0.057815020
1640791204.587630,-0.064449700,0.560581510,9.387026790,0.018474460,-0.001476710,-0.028423970
1640791204.591660,-0.269878090,0.561624230,10.296206470,-0.081306680,-0.030811130,-0.017298760
1640791204.592270,-0.243452850,0.347343360,10.253612520,-0.092713530,-0.031127040,-0.016920270
1640791204.595670,-0.067908660,0.501173320,9.456645010,0.004133580,-0.089304140,-0.016173720
1640791204.597319,-0.080334830,0.523631160,10.048312190,0.015330320,-0.036719440,-0.025983160
1640791204.601009,0.204921100,0.637357290,9.229941370,-0.034435090,0.011770430,-0.001405180
1640791204.603260,0.380901190,0.469637570,9.726828580,-0.096990170,-0.057502100,-0.004987420
1640791204.606540,0.348578750,0.232993190,10.348521230,-0.084112580,0.030474370,-0.019522010
1640791204.607659,0.316733510,0.313925210,9.570348740,-0.023761390,-0.031475720,-0.017273420
1640791204.610679,-0.123329260,0.047396020,10.605255130,-0.015959140,-0.142365660,-0.024341040
1640791204.612320,-0.027138800,0.040262830,9.139852520,-0.032791500,-0.025388600,-0.027117130
1640791204.616350,0.129473240,0.077470290,8.849136350,-0.058619670,-0.023755430,-0.035606320
1640791204.617300,-0.083246090,0.190516430,10.451991080,-0.080050530,0.089125340,-0.020694730
1640791204.620730,0.298420160,0.509006560,9.478963850,-0.085014110,0.048489870,-0.016944110
1640791204.623750,0.179263550,0.326965960,10.493172650,-0.053355090,-0.118473160,-0.021684170
1640791204.625620,0.027327140,0.180890490,9.869712830,-0.001917780,-0.024135410,-0.028705600
1640791204.627410,0.189377560,-0.020120780,8.537478450,0.009785590,-0.056672100,-0.041079520
1640791204.630740,-0.344902460,-0.312149020,10.522796630,-0.002823770,-0.004519520,-0.030760470
1640791204.632660,-0.061550020,-0.068749820,9.407563210,-0.034689900,0.074219710,-0.016683340
1640791204.635880,0.058737260,-0.139454720,9.900776860,-0.041417780,-0.109946710,-0.015507640
1640791204.637310,-0.045531410,-0.023551330,10.287980080,-0.007151070,0.016942620,-0.021013620
1640791204.640650,0.426090510,0.278587370,8.816444400,0.018110870,0.033859910,-0.057202590
1640791204.642300,-0.112763050,0.262023360,10.898778920,0.046043100,-0.057461870,-0.047209860
1640791204.645670,-0.011572730,0.624172870,9.601836200,0.015896560,-0.004649160,-0.039379290
1640791204.647410,0.230353400,0.538555860,8.977018360,-0.030277670,-0.102671990,-0.038453940
1640791204.651059,-0.340154380,0.432653780,10.579302790,-0.025855000,0.036801400,-0.028282410
1640791204.652459,-0.102407100,0.528849600,9.507078170,-0.013297800,0.044159590,-0.040431320
1640791204.655860,-0.338581980,0.138774690,10.706916810,0.033836070,-0.152660920,-0.037916000
1640791204.657300,-0.226945220,0.278901040,9.824973110,0.047174090,-0.025735800,-0.026927890
1640791204.660719,0.406667020,0.495547530,8.550683020,-0.038574640,-0.003412370,-0.037623940
1640791204.662330,0.053816040,0.440784130,10.597285270,-0.096498440,0.026865300,-0.009466710
1640791204.665680,0.416077410,0.621761980,9.665788650,-0.092943010,0.057129560,-0.035153320
1640791204.667870,0.435595960,0.391049330,9.995581630,-0.004360080,-0.116714840,-0.057567660
1640791204.670699,-0.080830480,0.319447430,10.336505890,0.049553810,-0.044418880,-0.042492150
1640791204.672299,0.145955610,0.315654640,8.813477520,-0.023169820,-0.014422830,-0.060606010
1640791204.675670,-0.231243300,-0.123018380,10.095929150,-0.066681210,-0.033862890,-0.027732550
1640791204.677340,-0.071326000,0.089609670,9.614547730,-0.062768160,0.068540880,-0.029468540
1640791204.680660,0.245371970,0.243033870,9.437901500,-0.047598780,0.002956390,-0.036311150
1640791204.682279,0.011144090,0.235487650,10.373592380,-0.030745570,-0.000156460,-0.010241570
1640791204.685730,0.318987040,0.299343530,9.479612350,-0.031773740,0.007134680,-0.043660410
1640791204.688330,0.106141880,-0.027522500,9.888331410,0.010374190,-0.052563850,-0.055722890
1640791204.690630,0.005599000,-0.044791260,9.556632040,0.034727160,0.006797910,-0.031888490
1640791204.692289,0.137670370,-0.078750330,9.470891950,0.006234650,0.032103050,-0.053915380
1640791204.695740,-0.111532230,-0.167564600,10.303189280,-0.013671820,0.017911200,-0.034138560
1640791204.697320,0.024288440,0.080095760,9.711767200,-0.003783410,-0.003130730,-0.024671850
1640791204.700970,-0.103611150,0.084297810,9.776489260,0.024235250,-0.036823750,-0.058497500
1640791204.702360,-0.049141030,0.326154200,9.479752540,0.046898420,0.000418720,-0.042702250
1640791204.705659,0.031146020,0.625587880,9.734206200,0.024904310,0.013396140,-0.041449070
1640791204.707340,-0.057437800,0.480163660,10.120638850,-0.005434450,0.024347010,-0.035312770
1640791204.710670,0.158726500,0.530382690,9.868762970,-0.002086160,-0.011479850,-0.016321240
1640791204.712740,-0.160455610,0.435556230,10.411124230,0.021646920,0.002905730,-0.034488740
1640791204.715649,-0.242347900,0.266656430,9.741294860,0.029467050,-0.051108000,-0.018367170
1640791204.717670,-0.205640540,0.182237650,9.609806060,0.023727120,-0.104279820,-0.014153120
1640791204.721760,-0.083074800,0.003577460,9.247401240,0.016354020,0.040629510,-0.035610800
1640791204.722280,0.384285360,0.296671270,9.277063370,0.000251830,0.061775740,-0.026027850
1640791204.725639,0.157274770,0.560691890,10.805058480,-0.046683860,0.045879190,-0.015929340
1640791204.727399,0.397189020,0.474140520,9.866279600,-0.056079030,-0.012908880,-0.015868250
1640791204.730909,0.300632090,0.356560980,9.915082930,0.020916760,-0.133769210,-0.024135410
1640791204.732290,-0.149695950,0.190327020,9.553735730,0.070525710,-0.007176400,-0.032341480
1640791204.735780,0.122030360,-0.002015410,8.642445560,0.035537770,0.012613830,-0.020490580
1640791204.737429,-0.244665890,-0.174586980,10.437640190,-0.006569920,0.029669710,-0.010450180
1640791204.740660,0.045164230,-0.119200390,9.595352170,-0.009121000,0.079315910,-0.010275840
1640791204.742309,0.238811600,-0.008514380,9.843193050,0.016829370,-0.083045650,-0.020483130
1640791204.745710,-0.018951140,0.149397890,9.973038670,0.023187700,0.026771430,-0.023803120
1640791204.747360,0.383675040,0.167574420,8.816288950,0.031630690,0.025486950,-0.039474670
1640791204.751060,-0.060084100,0.147265420,10.365262990,0.082132220,-0.022786860,-0.040836640
1640791204.752390,-0.005953330,0.287929830,9.398559570,0.068663060,0.055170060,-0.027567150
1640791204.755669,0.160667150,0.145151410,9.701644900,0.034737590,-0.044822690,-0.015085940
1640791204.757370,-0.423170120,0.027321540,10.717989920,0.030560790,0.036036970,-0.014610590
1640791204.761200,-0.008642950,0.045893610,9.089557650,0.064466900,-0.019539890,-0.028525290
1640791204.762369,-0.206419650,-0.087643990,10.091800690,0.130286780,-0.064243370,-0.042572610
1640791204.765679,0.044676910,0.306715670,9.229586600,0.100611160,0.091874610,-0.045211610
1640791204.767860,0.404758270,0.734852250,9.494478230,0.006105010,0.017662350,-0.043779610
1640791204.771720,0.034680820,0.702655970,10.838058470,-0.044953830,0.023178760,-0.031043590
1640791204.772750,0.345635620,0.704274120,9.321574210,0.017218290,-0.009156760,-0.036454200
1640791204.776059,-0.167882040,0.486993970,10.398712160,0.129732490,-0.096289810,-0.053592030
1640791204.777380,-0.468024430,0.473107040,9.719012260,0.109267230,0.014276800,-0.021557510
1640791204.780609,-0.111053470,0.339712680,9.065718650,0.016203520,-0.052906570,-0.006023050
1640791204.782320,-0.220301580,0.012180220,10.270634650,-0.033244490,0.051161650,-0.013969840
1640791204.785740,0.379934760,0.381729600,9.215981480,-0.022871800,0.104129330,-0.018833580
1640791204.788770,0.272925880,0.596941710,10.617695810,0.008456410,-0.019338730,-0.031004850
1640791204.790680,0.244013220,0.512969610,10.162734990,0.007037820,-0.005857650,-0.029507280
1640791204.792640,0.563744900,0.538743500,8.905835150,0.020542740,-0.088529290,-0.044234100
1640791204.795790,0.060851160,0.188141850,9.911443710,0.021673740,0.041669610,-0.033541030
1640791204.797299,0.170437860,0.116708940,9.220238690,0.006976730,0.123061250,-0.007405880
1640791204.801159,-0.286663470,-0.013420570,10.669918060,0.012844800,-0.050677360,-0.008979440
1640791204.802410,-0.330677300,-0.222420280,9.995604520,0.005909800,-0.025780500,-0.005057450
1640791204.805709,0.121084080,-0.055712150,8.511154170,0.021712480,-0.033134220,-0.010722870
1640791204.807350,-0.262461540,-0.065944650,9.972015380,0.047761200,0.088371340,-0.031393770
1640791204.810600,0.242875050,0.130626200,9.501800540,0.050270560,0.122869020,-0.030224030
1640791204.812270,0.217219840,0.425059590,10.267239570,0.045435130,-0.054422030,-0.027665500
1640791204.815680,0.256942630,0.376502190,9.800961490,0.013540690,0.016257170,-0.008559230
1640791204.817710,0.432130130,0.302155110,9.134544370,0.037068130,0.004974010,-0.012114640
1640791204.820710,-0.382220540,0.053607000,10.451406480,0.088709600,0.013259050,-0.038121640
1640791204.822420,-0.195938210,-0.030815070,9.490515710,0.117750470,-0.008440020,-0.031980860
1640791204.825719,-0.322365700,0.069751090,9.715975760,0.106231860,-0.055786970,-0.011958180
1640791204.827380,-0.203243570,0.192090530,9.486987110,0.032562020,0.071761020,-0.013273950
1640791204.830670,0.084485110,0.578161780,9.788287160,-0.019231440,0.066246090,-0.011447070
1640791204.832360,-0.256565150,0.726744410,10.650913240,0.007434190,0.008855760,-0.016178190
1640791204.835770,0.210648850,0.704352800,9.488069530,0.069659960,-0.074532640,-0.029157100
1640791204.838330,0.123603200,0.707538370,9.647475240,0.114795570,-0.038087370,-0.033560400
1640791204.840710,-0.037584320,0.593523440,9.470697400,0.054892900,0.060449550,-0.022029880
1640791204.842320,0.087520770,0.493698750,10.026642800,-0.018358230,-0.007890160,-0.003051760
1640791204.845660,-0.158301230,0.306881900,10.310313220,-0.042518980,0.000634790,0.001609330
1640791204.847360,0.160951580,0.361609370,9.374380110,-0.012137000,-0.040891770,-0.010451680
1640791204.851090,0.007845530,0.520817580,9.971181870,0.023828450,-0.006128850,-0.010858480
1640791204.852370,0.124248000,0.541356440,9.174164770,-0.012442470,0.068052110,-0.007857380
1640791204.855919,0.357224730,0.459447680,9.721284870,-0.026467440,-0.013794010,-0.009736420
1640791204.857600,-0.013965930,0.356926920,10.381022450,-0.026065110,0.061365970,-0.019355120
1640791204.860750,0.124822580,0.367949550,9.325737000,-0.022886700,-0.029751660,-0.004027780
1640791204.862380,-0.287054480,0.126094940,10.428973200,-0.009062890,-0.089916570,-0.001133980
1640791204.865650,-0.136584920,-0.108532090,9.035225870,-0.009180610,0.055371230,-0.015245380
1640791204.867740,0.175932660,-0.039449160,9.154154780,0.027358540,-0.016216930,-0.020146370
1640791204.870740,-0.072538260,0.014096910,10.350983620,0.018896160,0.106392800,0.001040100
1640791204.872380,0.559513570,0.230089900,8.913488390,-0.040900710,0.056432190,-0.002485510
1640791204.875710,0.115210870,0.259696660,10.712285040,-0.038823490,-0.083212550,-0.006431340
1640791204.877339,0.094626960,0.151835560,9.460578920,-0.008383390,0.032649940,-0.026260320
1640791204.880640,0.177241980,0.101115090,8.805755620,0.069887940,-0.059854990,-0.042821470
1640791204.882340,-0.712404250,0.014065940,10.769386290,0.080183140,0.031073390,-0.044591730
1640791204.889720,-0.208118930,0.078199410,9.079287530,0.009040530,0.047242640,-0.020031630
1640791204.890339,-0.485820890,-0.021346420,10.330365180,-0.000473860,-0.112789870,-0.006273390
1640791204.890920,-0.326957610,0.009494650,9.711614610,0.021058320,0.055073210,-0.013448300
1640791204.892300,0.333225310,0.276757840,8.786085130,0.062815850,0.011923910,-0.027011340
1640791204.895720,-0.218166830,0.372147020,10.906475070,0.074376160,-0.015373530,-0.036275390
1640791204.897320,0.527014020,0.645895660,9.059794430,0.025725370,0.000619890,-0.016093260
1640791204.900750,0.408720700,0.514689030,9.626340870,0.010079150,-0.074797870,-0.028014180
1640791204.902340,-0.108080100,0.413958370,10.530852320,0.003474950,0.057606410,-0.036789480
1640791204.905759,0.015905720,0.486948490,9.590171810,0.028638540,-0.053122640,-0.030104820
1640791204.907359,-0.636217300,0.185683560,10.397153850,0.057430560,-0.140573050,-0.033290680
1640791204.910640,-0.216176290,0.359610940,8.907129290,0.026936830,-0.015480820,-0.021234160
1640791204.912320,-0.048781000,0.536374630,9.266912460,-0.025722390,0.038595490,-0.013680760
1640791204.916040,-0.047295290,0.544788000,10.420796390,-0.068609400,0.064147990,0.006747250
1640791204.917420,0.479708700,0.712042090,10.073079110,-0.041475890,-0.020560620,-0.000388920
1640791204.922010,0.282923070,0.493499730,10.088554380,0.016161800,-0.086985550,-0.026418270
1640791204.922619,0.324485840,0.482416300,9.347508430,0.023762880,-0.077520320,-0.020977850
1640791204.925660,0.165161060,0.338565800,9.364548680,-0.021612650,-0.005620720,-0.011608000
1640791204.927580,0.156564500,-0.103525510,9.423316000,-0.067217660,0.044395030,-0.014744700
1640791204.930610,0.218533070,0.010312480,10.132129670,-0.020998720,0.013935570,-0.004208090
1640791204.932670,0.002763950,0.142403260,9.995261190,-0.009235740,0.031809510,-0.015559800
1640791204.935830,0.180246590,0.239812400,9.347470280,-0.044637930,-0.070694110,0.001937150
1640791204.937389,-0.128792200,0.227319910,9.899792670,-0.048206750,-0.019945210,-0.016333160
1640791204.940590,0.070701470,-0.039640670,8.791843410,-0.013510880,0.054761780,-0.040839620
1640791204.942289,0.053575240,0.115633850,9.877772330,0.059556960,-0.002963840,-0.017523770
1640791204.945670,-0.242918970,0.090667570,10.365838050,0.022244450,0.090439630,-0.021897260
1640791204.947350,0.181803760,-0.090838820,9.356282230,-0.040782990,-0.061717630,-0.010788440
1640791204.950749,-0.268955530,-0.303856020,10.470946310,0.019578640,-0.076988340,-0.004969540
1640791204.956380,0.056773680,-0.387823080,8.563556670,0.072729590,0.057846310,-0.035667410
1640791204.957090,0.213253010,-0.119347000,9.291918750,0.123767550,-0.031317770,-0.017188490
1640791204.957480,-0.138220220,0.191648230,10.427082060,0.044979160,0.106883060,-0.025680660
1640791204.960760,0.519035940,0.476061280,9.150105480,-0.034981960,0.008766350,-0.027900940
1640791204.962350,-0.048612260,0.531365040,10.770930290,0.007674100,-0.089800370,-0.020062920
1640791204.965900,-0.139345530,0.445868020,9.516720770,0.071470450,0.033964220,-0.052106370
1640791204.967500,-0.180558650,0.440085200,9.229469300,0.145557490,-0.092355900,-0.044824180
1640791204.972649,-0.857086840,0.313381050,10.434618950,0.093747680,-0.038182740,-0.018583240
1640791204.973430,-0.003658350,0.224534880,8.605937960,0.001303850,0.024054940,0.000636280
1640791204.975639,-0.091966650,0.167841020,10.179894450,-0.008945170,-0.003303590,0.006397070
1640791204.977330,-0.055579960,0.332194420,10.526227950,0.002054870,0.074562420,-0.004121660
1640791204.980690,0.457210990,0.555153310,9.517386440,0.049026310,-0.092901300,-0.023952130
1640791204.982590,0.135468180,0.414160970,10.136359210,0.062964860,-0.105592610,-0.035385790
1640791204.985760,0.497815490,0.519497390,8.798692700,0.029622020,0.039610270,-0.042481730
1640791204.989210,0.047467720,0.485700640,9.973748210,-0.001116100,-0.001206990,-0.035764280
1640791204.990630,-0.180513580,0.251385090,10.366054530,-0.018279250,-0.005377830,-0.014537570
1640791204.992309,0.036461100,0.326736780,9.473853110,0.015886130,-0.073760750,-0.014163550
1640791204.995679,-0.279736850,0.236386030,9.839041710,0.031851240,-0.045800210,-0.020842250
1640791204.997370,0.114688230,0.389292300,9.009120940,0.007642810,0.018553440,0.009804960
1640791205.000720,0.136355590,0.330689490,9.721793170,-0.015451010,0.034615400,-0.008493660
1640791205.002359,0.351521880,0.114645790,9.997982980,-0.021092590,0.056396420,-0.019094340
1640791205.005810,0.488645850,0.316595880,9.930962560,0.037577750,-0.039157270,-0.007085500
1640791205.007350,0.132245990,0.058029260,9.873117450,0.021593270,-0.021296750,-0.041091440
1640791205.010620,0.291756270,-0.006149040,9.090976720,-0.003558400,-0.027142470,-0.032153730
1640791205.012310,-0.244625240,-0.048003990,9.825526240,0.024916230,0.007031860,-0.033305590
1640791205.015780,-0.081998060,-0.243054610,9.267638210,0.048950320,0.040179490,-0.031229860
1640791205.017520,-0.031977030,0.150186320,9.808453560,0.073917220,-0.002965330,-0.000871720
1640791205.021380,-0.243799950,0.370475560,10.161532400,0.009231270,0.060893600,-0.008444490
1640791205.022339,0.217719090,0.390945550,9.580741880,-0.028817360,-0.033703450,0.004662570
1640791205.025650,-0.193621860,0.407824750,10.183757780,0.028285380,-0.021094080,-0.014381110
1640791205.027629,0.092664460,0.226191340,9.252880100,0.083179770,0.015752020,-0.046056510
1640791205.030660,0.032824320,0.337178530,9.962160110,0.116486830,-0.017373260,-0.032569460
1640791205.032620,-0.254403530,0.451695680,10.037641530,0.016695270,0.028958920,-0.031189630
1640791205.035889,0.201070590,0.300819640,9.316875460,-0.048626950,-0.045377010,-0.002178550
1640791205.038200,-0.127927620,0.363258600,10.193146710,-0.018461050,0.009022650,-0.007323920
1640791205.040650,0.086754110,0.467879330,9.437767030,0.025130810,0.042094280,-0.017563990
1640791205.042310,0.074465770,0.501494470,10.019673350,0.067049260,-0.056517130,-0.001122060
1640791205.045679,0.026034660,0.444486380,9.714205740,0.000049170,0.014001130,-0.021785500
1640791205.047750,0.405771940,0.329312120,9.099886890,-0.033797320,-0.006601210,-0.014153120
1640791205.050979,-0.055049770,0.264644210,10.392080310,-0.031639640,0.037403400,-0.007088480
1640791205.052369,0.012892080,0.163793800,9.592082020,-0.017151240,0.013796990,-0.008144980
1640791205.055650,-0.097096790,0.092066120,9.996971130,0.042608370,-0.131729220,-0.012658540
1640791205.057360,-0.101243240,-0.011573300,9.350670810,0.025561450,0.021393600,-0.021938980
1640791205.060619,0.388650950,0.212063710,8.601561550,-0.008903440,0.058989230,-0.015394390
1640791205.062399,-0.039984210,0.240783350,10.724003790,-0.035174180,0.086252380,-0.002725420
1640791205.065640,0.437040900,0.270292370,9.606051450,-0.039470200,0.041383520,-0.008507070
1640791205.067489,0.246531640,0.339166400,9.779956820,0.052358210,-0.115896770,-0.008893010
1640791205.071149,-0.146316900,0.151973260,9.658269880,0.041639800,0.026173890,-0.029420850
1640791205.072320,0.051150530,0.019647250,8.773936270,0.020013750,0.024493030,-0.028243660
1640791205.075660,-0.527604100,-0.165642980,10.422117230,0.041297080,-0.005322700,-0.035253170
1640791205.077329,-0.025897980,-0.146048370,9.457427020,0.039683290,0.049281130,-0.024814910
1640791205.080730,0.149102720,0.155572760,9.407331470,0.050871080,-0.007435680,-0.000865760
1640791205.082589,-0.036594800,0.227683950,10.238425250,-0.005748870,0.057230890,-0.019073490
1640791205.085719,0.351375700,0.433838190,9.397548680,0.007498270,0.015977030,-0.016285480
1640791205.087890,0.034433650,0.429128020,9.806169510,0.065703690,-0.065234310,-0.035086270
1640791205.090580,0.204600680,0.352257190,9.411819460,0.088644030,0.025974220,-0.035081810
1640791205.092330,0.101732130,0.544810410,9.598342900,0.067681070,0.050395730,-0.036349890
1640791205.095739,-0.282223760,0.444095020,10.491192820,-0.029204790,0.019873680,-0.031319260
1640791205.097390,-0.134747420,0.551068900,9.942611690,-0.038418180,-0.028119990,-0.013537710
1640791205.103170,-0.225164700,0.432430360,9.418004040,0.013649460,-0.045984980,-0.033196810
1640791205.103940,0.032693730,0.493601320,9.237136840,0.047771630,0.017961860,-0.035360450
1640791205.105650,0.066242620,0.836392280,9.678865430,0.007838010,0.099936130,-0.018908090
1640791205.107370,0.311740340,0.455280240,9.842890740,-0.080907340,0.041709840,-0.018057230
1640791205.110679,0.412604900,0.471406250,10.404719350,-0.044517220,-0.008752940,-0.018098950
1640791205.112759,0.184195370,0.541289030,9.878475190,-0.024874510,0.031496580,-0.042454900
1640791205.116210,0.231527050,0.250166620,9.308218000,-0.024403630,-0.037972630,-0.023388860
1640791205.119300,-0.154820200,0.224472550,9.975215910,-0.019699340,0.019390890,-0.035989280
1640791205.120669,0.208437980,0.023753180,8.644994740,-0.047583880,0.094452520,-0.041668120
1640791205.122320,0.177830790,0.182062420,9.778425220,-0.025583800,0.033888220,-0.012500580
1640791205.125670,-0.006362680,0.377182190,10.187157630,-0.081978750,0.138168050,-0.025960800
1640791205.127440,0.361807500,0.308642240,9.353960040,-0.088112080,-0.003100930,-0.014910100
1640791205.130689,-0.109859560,0.165644000,10.537142750,-0.000049170,-0.025029480,-0.028713050
1640791205.132700,0.076659960,0.032238230,8.819955830,0.022518640,0.105319930,-0.072741520
1640791205.135740,0.092733700,0.032542280,9.170034410,0.036703050,0.025048850,-0.039009750
1640791205.137640,-0.426830530,-0.088719500,10.469301220,-0.021466610,0.121748450,-0.035892430
1640791205.140610,0.175257640,-0.115381020,9.024198530,-0.038218500,0.041365620,-0.039827820
1640791205.142360,-0.069514220,-0.066950870,9.979640010,0.029708440,-0.031448900,-0.028735400
1640791205.145630,0.182589680,0.013298310,9.246422770,0.041431190,0.150643290,-0.057016320
1640791205.147359,0.345880960,0.311436030,9.395837780,0.053317850,0.097613060,-0.069969890
1640791205.150740,-0.171449570,0.449280950,10.725121500,0.015166400,0.033335390,-0.061090300
1640791205.152420,0.194564950,0.559560120,9.196238520,-0.001853700,0.016488140,-0.046102700
1640791205.155720,-0.179502980,0.497314240,9.519833560,0.018341840,0.015385450,-0.063167520
1640791205.157400,-0.477801680,0.407927240,9.993751530,0.020204480,0.086250910,-0.054310260
1640791205.160810,-0.406168250,0.381686060,9.669676780,0.058744860,0.030648710,-0.052678590
1640791205.162799,-0.356143120,0.157372760,9.871185300,0.047710540,0.004974010,-0.065398220
1640791205.166020,0.170881000,0.499308200,9.405448910,0.006657840,0.081610690,-0.038099290
1640791205.167410,0.232629970,0.713070870,9.705818180,-0.059087580,0.116430230,-0.050739950
1640791205.170600,0.464665890,0.684489250,9.962958340,-0.092898290,0.064148020,-0.048446660
1640791205.172370,0.453575610,0.884129760,9.906233790,-0.013390180,0.011847910,-0.057728590
1640791205.176120,0.234931010,0.533730750,9.601976390,0.026234980,0.022304060,-0.086227070
1640791205.177369,0.181976410,0.558822390,9.446020130,0.021244580,0.027818980,-0.047832720
1640791205.180660,-0.279969660,0.392941390,9.863188740,-0.069241230,0.085507330,-0.050735480
1640791205.182700,0.074254890,-0.019714050,9.375076290,-0.112655770,0.093959290,-0.047908730
1640791205.185760,-0.162210030,0.234704140,10.084068300,-0.036515300,0.069591400,-0.040441760
1640791205.187600,-0.186613080,0.267995690,9.690841670,-0.034326310,0.082632910,-0.067593160
1640791205.190650,0.205847950,0.282156590,9.277740480,-0.043179090,0.015136600,-0.046804540
1640791205.195040,-0.025174270,0.174686450,9.787576680,-0.055724380,0.098729160,-0.071221590
1640791205.195660,0.402089300,0.035193450,9.170264240,-0.022833050,0.123369700,-0.072696810
1640791205.197379,0.172648830,0.184169520,10.220699310,0.016675890,0.082826610,-0.055286290
1640791205.200760,0.107604530,0.244800720,9.696605680,-0.062683220,0.093650840,-0.058946020
1640791205.203920,0.216564240,0.153266180,9.478224750,-0.067079050,-0.000911950,-0.049148490
1640791205.205659,-0.195482250,0.010655910,9.612002370,-0.025807320,0.106704240,-0.063732270
1640791205.207520,0.071264940,0.077680010,8.956793790,0.039967890,0.102527460,-0.078898670
1640791205.210660,-0.206338240,0.323643240,10.228183750,0.035539270,0.087548790,-0.082868340
1640791205.212340,-0.018095510,0.539157990,9.615669250,-0.073842700,0.139731180,-0.067877770
1640791205.216019,0.075558150,0.558230820,9.828789710,-0.085413450,0.040011100,-0.053295490
1640791205.217409,-0.251150070,0.292809840,10.295284270,-0.037671630,0.110144910,-0.076198590
1640791205.221099,-0.104312410,0.379928050,9.383855820,0.049474840,0.055222210,-0.077751280
1640791205.222319,-0.485756900,0.378441450,10.014665600,0.056692960,-0.009286400,-0.059871390
1640791205.225690,-0.006181470,0.181043250,8.956026080,-0.057199610,0.103281450,-0.053934750
1640791205.227419,0.324522550,0.431422950,9.259588240,-0.088715550,0.132976490,-0.053514540
1640791205.230610,0.094171090,0.491315480,10.725632670,-0.084395710,0.182005780,-0.067470980
1640791205.232630,0.437787350,0.740185260,9.915746690,-0.052268800,0.060066570,-0.053589040
1640791205.235679,0.098542500,0.715927420,9.843045230,-0.022745130,-0.045195220,-0.062914190
1640791205.237330,0.193312960,0.383145510,8.996274950,-0.029085580,0.086873780,-0.072488190
1640791205.240720,-0.019922950,0.383067940,9.211930270,-0.023926790,0.150068120,-0.054050990
1640791205.242370,-0.446813640,0.086436030,10.197796820,-0.078354780,0.120002040,-0.044403970
1640791205.245590,-0.088929400,0.029216710,9.809761050,-0.066319110,0.055269900,-0.037235030
1640791205.247429,-0.207679550,0.048926030,9.676321980,-0.055827200,0.066685680,-0.057590010
1640791205.250720,0.099580140,0.130371630,9.192623140,-0.037056220,0.080096720,-0.061915820
1640791205.252380,0.110930990,0.269652340,9.665923120,-0.035126510,0.145854070,-0.075447570
1640791205.255640,0.314475630,0.222387870,9.345555310,-0.055859990,0.157757120,-0.078795850
1640791205.257520,0.246851010,0.308849960,10.167743680,-0.012031200,0.045749550,-0.055281830
1640791205.260759,-0.024886670,0.253377260,9.733411790,-0.034970050,0.100447240,-0.058397660
1640791205.262339,0.007474460,0.105693400,8.990619660,-0.035466250,0.028620670,-0.046464810
1640791205.266029,-0.634890260,-0.104815510,10.281766890,-0.004956130,0.065547240,-0.062984230
1640791205.269729,-0.257476270,-0.222419980,8.874921800,0.013604760,0.133416070,-0.088708100
1640791205.270670,-0.130264000,0.068850180,9.522612570,0.059816240,0.035977370,-0.069168220
1640791205.272970,-0.170552820,0.419466350,10.105597500,-0.025796890,0.191302610,-0.069063900
1640791205.275650,0.408172760,0.720745030,9.297840120,-0.104339420,0.106568630,-0.057378420
1640791205.277340,-0.156411980,0.600037690,10.678096770,-0.053235900,0.001430510,-0.060197720
1640791205.280599,0.008777370,0.462120920,9.394805910,0.043316190,0.059923540,-0.084057450
1640791205.282640,-0.152678030,0.337781700,9.128582000,0.118185580,0.020574040,-0.080442410
1640791205.285630,-0.617272970,0.229001830,10.151478770,0.019149480,0.076097260,-0.075078010
1640791205.287370,-0.130417170,0.387220830,9.421722410,-0.090040270,0.087922810,-0.042499610
1640791205.290969,-0.160844700,0.257143080,9.932065960,-0.109200170,0.067307040,-0.054231280
1640791205.292349,0.062817220,0.544887840,10.017116550,-0.036118920,0.076650070,-0.065478680
1640791205.295660,0.111325850,0.915274140,9.731899260,0.016160310,0.043503940,-0.075666610
1640791205.297390,0.102348390,0.742546260,9.438535690,-0.023216010,0.003211200,-0.058023630
1640791205.305290,0.135518160,0.693265560,9.661505700,-0.059445190,0.023876130,-0.044906140
1640791205.306749,-0.031896220,0.412359680,9.570686340,-0.089372690,0.122618680,-0.058133900
1640791205.307299,0.009805880,0.281293000,9.780799870,-0.058990730,0.023423140,-0.031758840
1640791205.307710,-0.449721870,0.205966900,10.598648070,-0.045301020,0.015543400,-0.043003260
1640791205.310609,-0.023055240,0.041162580,8.729660990,-0.066795950,0.012052060,-0.051197410
1640791205.312320,-0.057824990,0.068167020,9.603266720,-0.038823490,-0.020822880,-0.044983630
1640791205.316059,0.012641250,0.127304870,9.458098410,-0.068843360,0.184626880,-0.050856180
1640791205.317479,0.534724240,0.336840390,9.114787100,-0.075575690,0.061273580,-0.041696420
1640791205.320750,-0.042020090,0.324459550,11.099588390,-0.052446130,0.016213960,-0.031656030
1640791205.323609,0.288846080,0.331120670,9.064120290,-0.048217180,0.043341520,-0.042392310
1640791205.325620,-0.053706410,-0.025063510,9.361633300,-0.002549590,-0.065483150,-0.041489310
1640791205.327390,-0.499038730,-0.309637310,9.749070170,0.014133750,0.096805390,-0.054174670
1640791205.330680,-0.149577930,-0.228223290,8.959600450,0.034067040,0.058661400,-0.056657200
1640791205.332710,-0.391353100,-0.193716880,10.074034690,0.010269880,0.019279130,-0.040800880
1640791205.335960,0.118795700,0.319166150,9.274026870,-0.048875800,0.077609700,-0.026105350
1640791205.338660,0.146995320,0.435571190,9.703941350,-0.063854460,0.071641810,-0.041995950
1640791205.340610,0.174424080,0.406549360,9.864161490,0.001724060,0.042206050,-0.034455950
1640791205.342399,0.096274570,0.508213880,9.842376710,0.092537690,-0.011232490,-0.052560870
1640791205.345670,-0.094110820,0.298302800,9.260802270,0.080221900,0.031097240,-0.043170150
1640791205.347479,-0.110059630,0.330751330,9.291698460,0.004020330,-0.015260280,-0.017392640
1640791205.350760,-0.581797420,0.130116130,10.158053400,-0.065223870,0.061675920,-0.029712920
1640791205.353870,-0.102905370,0.110088290,9.085935590,-0.022484360,0.022822620,-0.036282840
1640791205.356819,-0.408600360,0.332336490,10.462108610,0.063541550,-0.042283550,-0.052551930
1640791205.357380,-0.169200640,0.690890070,9.345959660,0.027832390,0.086417800,-0.056621430
1640791205.360700,0.221778150,0.859721000,9.372835160,-0.036488480,-0.046965480,-0.028926130
1640791205.362350,-0.180619460,0.649709700,10.609999660,-0.065590450,0.030259790,-0.011934340
1640791205.366070,0.325609240,0.692497010,8.914298060,-0.028349460,0.020007790,-0.034530460
1640791205.367410,-0.224080770,0.535844740,10.475910190,0.018748640,-0.087974980,-0.027018790
1640791205.372589,-0.285711050,0.546637890,9.601388930,-0.029522180,-0.000122190,-0.012424590
1640791205.373149,0.053120410,0.472720950,9.009669300,-0.078883770,-0.076162820,-0.023581090
1640791205.375769,-0.210293200,0.283515510,10.074681280,-0.086505710,0.048129260,-0.016474730
1640791205.377420,0.264010910,0.645146430,9.413921360,-0.083830950,0.055959830,-0.023499130
1640791205.380720,0.073250870,0.683169360,10.463961600,-0.085739800,-0.041651730,-0.036051870
1640791205.382670,0.320289340,0.732929350,9.457241060,-0.116790850,-0.009293860,-0.010505320
1640791205.386489,0.255529220,0.602657910,9.528216360,-0.101429230,-0.055257980,-0.024218860
1640791205.387420,0.004126220,0.219777930,9.602066990,-0.069373850,0.044222180,-0.006870930
1640791205.390560,0.213280830,0.140224930,9.344263080,-0.062175110,-0.006446240,0.005383790
1640791205.392400,-0.262098580,-0.148906800,10.546602250,-0.076252210,0.018613040,0.008144970
1640791205.395700,0.172452600,-0.073562950,9.279627800,-0.090993950,-0.000883640,0.022816660
1640791205.397390,-0.064585600,-0.098395330,10.040907860,-0.088396680,-0.048144160,0.010369720
1640791205.401160,0.128737670,0.149627340,9.020984650,-0.088261080,0.081431850,-0.004607440
1640791205.402510,0.398099900,0.310471800,9.448644640,-0.065226850,0.005805490,-0.030088430
1640791205.406280,0.122275030,0.404545840,10.125312810,-0.049611930,0.080749390,-0.004258750
1640791205.407369,0.471446190,0.621158720,9.136757850,-0.060971080,-0.006937980,-0.003995000
1640791205.410650,-0.136799870,0.254524830,10.554265020,-0.079038740,-0.024098160,0.001055000
1640791205.412400,-0.094102620,0.110982400,9.169645310,-0.054034600,0.031067430,0.014667210
1640791205.415969,-0.371441300,-0.169535650,9.753213880,0.003556910,-0.079955150,-0.005848700
1640791205.417410,-0.317869750,-0.119541620,9.433551790,0.006632510,0.082123290,0.015057630
1640791205.420640,0.183950100,0.274179610,9.111785890,-0.055885330,0.057399280,0.009287890
1640791205.422459,-0.173519130,0.274490570,10.841867450,-0.108076630,0.052963200,0.018654760
1640791205.425720,0.384347320,0.566857760,9.415992740,-0.078783910,0.005196030,0.018066170
1640791205.427480,0.019396450,0.592092280,10.057872770,0.004860760,-0.087323780,-0.012882050
1640791205.430660,-0.077185420,0.754710080,9.425320630,0.004473330,0.035966930,-0.010672210
1640791205.432850,-0.043305590,0.839098930,9.429688450,-0.067952280,-0.020253660,0.009720030
1640791205.435750,-0.413612780,0.487124350,10.236597060,-0.117900960,0.018575790,0.029453640
1640791205.437430,0.176258880,0.501712740,9.256195070,-0.087244830,0.005403160,0.025172540
1640791205.440580,-0.136137900,0.444233240,10.413869860,-0.052824620,0.025747720,0.012388830
1640791205.442390,0.167151880,0.689767060,9.473045350,-0.084637110,0.023116170,0.028567020
1640791205.445700,0.277126820,0.544594470,9.872599600,-0.134582830,-0.054436930,0.025130810
1640791205.447490,0.319369940,0.264891800,9.333097460,-0.133682790,0.069557150,0.023967030
1640791205.451190,0.430608630,0.281348760,9.354969980,-0.068365040,0.008074940,0.006961820
1640791205.452400,-0.180030480,0.028806810,10.654229160,-0.047717990,0.047507890,0.016190110
1640791205.455670,0.064192590,0.155109150,9.124488830,-0.100666290,-0.015132130,0.027737020
1640791205.457419,-0.404119850,-0.089610690,10.399551390,-0.107391180,-0.096023090,0.024972860
1640791205.460700,-0.145746070,-0.053959820,8.975442890,-0.093141210,0.085672740,0.027693810
1640791205.462450,0.205741360,0.261307150,9.007018090,-0.055931520,0.030814120,0.018933420
1640791205.465799,-0.053897540,0.314666330,10.651740070,-0.063857440,0.134260970,0.025109950
1640791205.467820,0.659361660,0.580334960,9.285240170,-0.102522980,0.046817960,0.024071340
1640791205.471860,0.141634660,0.267253550,10.364809990,-0.077001760,-0.071172420,0.026158990
1640791205.472360,0.110025660,0.142628880,9.233079910,-0.041265790,0.029464070,0.022397940
1640791205.475669,-0.043713630,-0.065329670,9.248438840,-0.022591650,-0.003421310,0.007377560
1640791205.477360,-0.448949280,-0.283330530,9.987492560,-0.017821790,0.062839690,0.024917720
1640791205.480899,-0.026466340,-0.101498430,9.668211940,-0.024151800,0.018507240,0.029782950
1640791205.482380,-0.181243120,-0.046618540,10.097299580,-0.050683320,0.055712470,0.031119590
1640791205.485700,0.128984020,0.403316650,9.521170620,-0.068406760,0.033509730,0.028003750
1640791205.487439,-0.061553490,0.519665960,10.318914410,-0.048270830,0.002850590,0.015474860
1640791205.490670,0.086016700,0.596379760,9.166095730,-0.013890860,0.007909540,0.018450620
1640791205.492370,0.147843610,0.745869990,9.595962520,0.022564830,-0.058369340,0.025942920
1640791205.495930,-0.174183490,0.585343900,10.083773610,-0.043682750,0.111480060,0.029923020
1640791205.497380,0.196103380,0.646497610,9.468650820,-0.104878840,0.008335710,0.050784650
1640791205.500949,-0.391348510,0.217756960,11.204000470,-0.082924950,-0.041922930,0.050187110
1640791205.502499,0.060516330,0.079507780,9.085202220,-0.014428800,0.018402930,0.032383210
1640791205.505590,0.185856250,0.264117120,9.173135760,0.017173590,-0.056095430,0.033220650
1640791205.507409,-0.037246790,0.222353500,9.903621670,-0.074903650,0.121918330,0.058282910
1640791205.510690,0.676820520,0.284183620,8.978785510,-0.124357660,0.075919930,0.054778170
1640791205.512590,0.055933670,0.165162670,10.910376550,-0.069963930,-0.023974480,0.048819180
1640791205.515699,0.198748710,0.243975880,9.641778950,-0.003597140,0.009031590,0.049076970
1640791205.517660,0.003796480,0.137327950,9.462298390,0.013317170,-0.054438410,0.032858550
1640791205.521510,-0.346483530,0.000704060,9.640500070,-0.021268430,0.045579670,0.042186680
1640791205.522380,-0.011372540,0.114243430,9.292062760,-0.036016100,0.042966010,0.051140780
1640791205.525600,-0.023726490,0.080781020,9.624067310,-0.036349890,0.082385530,0.056199730
1640791205.528110,0.379237770,0.432849110,9.577454570,-0.045184790,0.050136450,0.065651540
1640791205.530650,0.171863450,0.336542640,10.554601670,-0.038567190,0.052969170,0.052279240
1640791205.532780,0.293216200,0.075558890,9.409326550,0.004097820,0.009855630,0.044649840
1640791205.535730,-0.022867260,-0.025479680,10.011657710,0.080704700,-0.059981660,0.032763180
1640791205.537410,-0.211191850,-0.141249330,9.470734600,0.032995640,0.115704540,0.025260450
1640791205.540619,-0.010550010,-0.015192460,9.228919980,-0.018097460,0.012849270,0.041486320
1640791205.542400,-0.561890660,-0.051872810,10.906711580,-0.010547040,0.021982200,0.048543520
1640791205.545650,0.016799260,0.075855690,8.895633700,0.020569560,0.044694540,0.038053100
1640791205.547400,-0.118968080,0.357160660,9.905703540,0.080153350,-0.062267470,0.031875080
1640791205.550660,-0.170987000,0.660703480,10.021142010,0.033728780,0.110420580,0.040645900
1640791205.552470,0.397739740,0.871673760,9.190786360,-0.021198400,0.018873820,0.063991560
1640791205.555660,-0.056472440,0.626989660,10.700072290,-0.017827750,-0.018201770,0.060093410
1640791205.557410,0.359955460,0.604389910,9.325467110,0.017751750,0.061517960,0.043879440
1640791205.561220,0.075662680,0.419852050,9.737623210,0.048951810,-0.008817020,0.045943260
1640791205.562420,-0.343945830,-0.025987320,10.251523020,0.034144530,0.002302230,0.057104240
1640791205.566079,-0.023438600,-0.209014530,9.335859300,0.043600800,-0.046637660,0.045114760
1640791205.568019,-0.101574420,-0.335190590,9.273029330,0.039434440,0.033628940,0.046600400
1640791205.570720,0.231884580,0.020808270,9.448488240,0.014603140,0.085476040,0.059618060
1640791205.572399,0.170990900,0.250929270,10.396702770,-0.008647140,0.117489700,0.046089300
1640791205.575729,0.308738440,0.328081580,9.942911150,0.017941000,-0.014023480,0.045292080
1640791205.577370,-0.008447060,0.423043610,10.060227390,0.108017030,-0.105662640,0.039379300
1640791205.580639,-0.128656010,0.246770890,8.812938690,0.087684410,0.039803990,0.021688650
1640791205.582579,-0.182471290,0.113839400,9.224375720,0.073176630,0.000371040,0.038662560
1640791205.585680,-0.654291810,0.024145440,10.731473920,0.058424470,0.056959680,0.043624640
1640791205.587400,0.123094420,0.060443470,9.055603030,0.048923500,0.024138390,0.059697030
1640791205.590620,0.007460490,0.226150330,10.324752810,0.072260190,-0.044883780,0.066618610
1640791205.594820,0.118907210,0.340128420,9.942357060,0.047548130,0.113874690,0.043487550
1640791205.595650,0.427530560,0.424876570,9.211622240,0.062738370,-0.033600640,0.038762400
1640791205.597400,-0.196510090,0.387542720,10.450206760,0.094054640,-0.074589260,0.031690300
1640791205.600679,0.247898740,0.490500510,8.791206360,0.072734070,0.026345250,0.027501580
1640791205.603299,-0.089834050,0.580029070,9.779212000,0.053784250,-0.012962520,0.029543040
1640791205.605620,-0.518130960,0.526649240,10.722598080,-0.001817940,0.023432080,0.051796440
1640791205.607470,-0.076859710,0.447115450,9.543008800,0.029654800,-0.054113560,0.055940440
1640791205.610600,-0.305778180,0.246182740,9.886588100,0.083097820,-0.044834620,0.039102140
1640791205.612429,0.023655140,0.551253260,9.435425760,0.075936320,0.027666990,0.057041650
1640791205.616020,0.173610000,0.569420750,9.398658750,-0.013656920,0.026857860,0.057758400
1640791205.617430,0.576723930,0.316614780,9.376809120,-0.051996110,0.018481910,0.059367720
1640791205.620610,0.528122840,0.404057800,10.184981350,0.028924650,0.027628240,0.049261750
1640791205.622380,0.177936330,0.253183510,9.952994350,0.065019720,0.015684960,0.030590590
1640791205.625640,-0.076878830,0.136128980,9.777925490,0.063233100,-0.131812740,0.040295720
1640791205.627669,-0.593261780,-0.019035810,9.774058340,0.020819900,-0.046652560,0.007911030
1640791205.630600,-0.187665570,-0.101790490,8.396455760,0.004784760,0.034575160,0.006872420
1640791205.632880,-0.386438520,0.242635490,10.223148350,0.053857270,0.017979740,0.034202640
1640791205.635769,-0.068355850,0.543185650,9.855785370,0.010241570,0.109846890,0.038969520
1640791205.637349,0.384149670,0.702728990,9.741399770,-0.008198620,-0.072570150,0.044476990
